Flight_Time_(s),Gyro_X,Gyro_Y,Gyro_Z,Accel_X,Accel_Y,Accel_Z
0,4.9,-6.2,-5.6,-1.82,18.07,-0.32
0.002,7.2,-13.5,-1.4,-1.29,17.91,-0.07
0.004,4.9,-15.8,-2.8,-1.23,17.99,0.56
0.006,4.9,-9.3,0.8,-1.63,17.66,-0.26
0.008,6.9,-11.6,1.8,-1.17,18.17,0.16
0.01,4.6,-9.7,-0.8,-1.32,18.47,-0.19
0.012,0.8,-3.1,-8,-2.42,17.83,0.8
0.014,10,22.7,6.3,-1.31,17.84,-0.74
0.016,5.2,23.4,11,0.1,18.25,-0.71
0.018,0.6,27.8,-5.7,0.42,18.95,2.19
0.02,0.9,37.9,-20.5,-2.96,16.84,-1.44
0.022,5.8,37.5,-3.7,-0.87,17.67,0.48
0.024,8.6,11.8,7.5,-0.44,18.55,-0.61
0.026,3.2,8.4,-4,0.09,18.77,1.53
0.028,1.4,25.3,-3.3,-1.57,18.18,0.89
0.03,3.8,37.2,-1.7,-0.94,17.91,0.54
0.032,4.5,48,1.3,-1.15,18.03,-0.16
0.034,3.4,44,0.8,-0.77,18.11,-0.91
0.036,1.9,28,-4.8,-1.39,18.14,-1.36
0.038,-1.3,16.3,-6,-1.49,18.07,-0.32
0.04,2.2,20,0.4,-2.71,16.81,0.08
0.042,-42.3,56.7,30.8,-2.89,15.17,0.95
0.044,14.4,66,2.9,-1.01,19.64,-2.34
0.046,16.1,21.6,-8.3,-1.63,17.05,-1.03
0.048,-6.1,22.7,2.7,-2.22,17,-1.59
0.05,-0.2,18.2,28.8,1.07,18.99,1.09
0.052,6.7,18.8,8.7,-0.21,19.45,0.67
0.054,1.4,25.4,-4.4,-0.15,18.07,1.43
0.056,-12.9,39.9,-4.3,-1.2,17.32,-0.54
0.058,-5.8,58.1,-5.8,-1.42,17.97,1.25
0.06,-12.4,67.4,-6,-1.02,17.5,1.14
0.062,-0.4,68.1,5.4,-0.91,17.56,-1.9
0.064,6.2,47.4,5.5,0.19,17.98,1.02
0.066,-3.6,49.9,5.4,0.38,18.09,1.64
0.068,-5.3,62.8,3.9,-0.49,18.1,-4
0.07,-13.9,54.2,-2.6,-0.23,19.38,2.6
0.072,-22.6,85.8,-4.6,-3,17.11,-1.6
0.074,-21.6,98.9,3.6,-4.15,18.32,0.11
0.076,-10,117.1,5,-1.4,18.18,-2.53
0.078,-2.1,104.5,3.8,-0.43,18.32,-0.59
0.08,-8.7,90.3,-0.2,-0.23,17.91,1.15
0.082,-19.8,118,4.7,-1.28,18.36,0.12
0.084,-20.2,126.7,3.7,-1.66,18.02,-1.49
0.086,-20,113.5,-3.2,-1.89,17.94,0.77
0.088,-13,119.4,1.7,-1.84,17.54,0.45
0.09,-11.9,131.6,6.2,-0.21,18.15,0.64
0.092,-22,133.8,0.8,0.28,18.42,0.71
0.094,-59.4,122.3,-19.8,-1.22,18.99,3.36
0.096,-28.1,137.4,-14.4,-0.68,15.74,6.14
0.098,25.2,158,8.3,-0.41,18.87,1.94
0.1,-20.2,149,5.1,-0.46,19.85,1.86
0.102,-0.1,136.5,-3.2,-1.83,16.91,-0.86
0.104,-10,120.6,6.2,-1.39,17.61,0.44
0.106,-11.8,123.3,8.8,-1.41,17.88,0.51
0.108,-20.5,133.5,1.3,-0.89,18.84,-0.61
0.11,-20.7,138.6,-2.6,-1,18.08,1.28
0.112,-24.4,147.7,3.4,-0.3,18.31,1.91
0.114,-21.4,148.5,-1.6,-0.43,18.29,2.16
0.116,15.1,124.1,13.9,-1.47,16.24,-4.19
0.118,-4.6,102.9,19.7,1.81,18.66,-5.15
0.12,-11.5,90.2,-2.8,1.04,20.56,-0.7
0.122,-29.9,116.6,-38.7,-3.24,17.09,1.4
0.124,-40.7,126.4,-17.6,-4.81,16.22,2.05
0.126,-9.6,134.4,8.9,-0.8,18.99,2.23
0.128,26.8,130.7,7.1,-1.08,18.33,2.16
0.13,-21.2,114.4,34,-0.59,20.11,-1.54
0.132,2.5,143.9,4.5,0.96,20.19,-6.85
0.134,-26.6,116.9,-21.5,-4.91,16.33,-2
0.136,-15.8,102.9,3,-0.58,16.82,0.31
0.138,-20,102.3,13.2,-0.6,19.47,3.13
0.14,-37.9,105.7,15.5,-0.78,19.47,-2.31
0.142,0.5,102.7,15.3,1.64,18.69,0.28
0.144,5.7,114.5,-3.3,-2.52,16.31,-3.84
0.146,-37.3,109.4,1.4,-0.93,18.24,0.95
0.148,-44.9,115.9,-1.6,1.2,20.54,3.71
0.15,-12.7,129.1,-21,0.16,19.47,2.38
0.152,16.7,150,-12,-7.4,14.8,0.48
0.154,0.1,146.2,19.8,-0.18,18.91,-3.19
0.156,-0.5,129.7,16.8,1.5,17.69,0.27
0.158,-59,107.5,7.1,2.43,21.35,9.51
0.16,7.1,128.8,-16.2,0.97,20.67,3.07
0.162,17.1,156.3,13.9,-9.37,13.24,-6.97
0.164,11.1,140.3,48.7,-0.22,21.53,1.82
0.166,-8.2,106,-11.6,0.22,18.87,-0.24
0.168,-18.6,98.1,0.4,-1.05,18.49,-2.38
0.17,-3,75,-0.8,-1.14,17.78,0.18
0.172,-3.6,87.2,3.3,-2.67,17.68,0.58
0.174,-19.3,102.3,3,-2.49,18.63,-0.63
0.176,-18.5,89.8,-5.6,-1.19,18.8,2.12
0.178,1,95.5,-7.9,-3.71,16.81,-0.07
0.18,15.6,102.6,16,-0.21,18.03,-2.62
0.182,-3.9,86.3,21.4,0.24,19.82,-1.6
0.184,-11.9,78.1,-13.9,-1.21,18.42,2.23
0.186,-15.6,88.1,-9.6,-3.35,17.03,1.06
0.188,-3.1,110.8,12.4,-1.86,18.47,-1.9
0.19,2.1,83.4,9.4,-0.89,18.46,0.15
0.192,0,82.8,5.1,-1.31,18.25,-0.87
0.194,-2.3,89.7,2.5,-0.52,18.82,-0.08
0.196,-6.4,85.1,5.7,-1.18,18.53,0.4
0.198,-8.2,100.1,8.6,-1.32,18.44,-0.16
0.2,-8,97.7,5.7,-0.98,18.69,-0.98
0.202,-6.1,87.5,5.7,-1.42,18.62,-0.62
0.204,-3.4,84.3,4.3,-0.86,18.39,-0.28
0.206,-6.6,88.6,4.1,-0.58,19.02,-0.61
0.208,-8.5,91.3,1.3,-0.98,18.58,-0.27
0.21,-5.9,88.9,7.8,-0.74,18.85,0.24
0.212,-7.2,97.1,6.5,-1.15,18.49,-0.45
0.214,-8.6,94.9,4.6,-1.03,18.75,-0.53
0.216,-7.9,86.8,6.7,-0.76,18.75,0.11
0.218,-7.6,87.2,2.5,-1.1,18.5,0.19
0.22,-5.9,93.8,2.9,-1.09,18.81,0.08
0.222,-4.9,89.5,6,-1.05,18.61,0.36
0.224,-8.8,91.4,5.9,-1.5,18.55,0.6
0.226,-9.7,92.2,6.9,-1.71,18.64,0.41
0.228,-7.5,90.7,7.1,-1.44,18.62,0.48
0.23,-4.6,90.6,9.2,-1.45,18.78,0.6
0.232,-3.9,91.5,5.4,-1.7,18.52,0.42
0.234,-6.7,90.9,6.2,-1.66,18.62,0.38
0.236,-7.1,87.9,9.9,-1.59,18.7,0.76
0.238,-6.9,93.2,10.5,-1.52,18.59,0.18
0.24,-5.5,90.8,8.2,-1.59,18.62,-0.1
0.242,-3.4,87.6,9.7,-1.43,18.61,0.09
0.244,-6.9,91.4,11.6,-1.26,18.61,-0.22
0.246,-7.3,90.4,8.7,-1.18,18.73,-0.34
0.248,-4.4,87.9,8.9,-1.12,18.53,-0.17
0.25,-4.6,88.9,12.8,-0.97,18.75,-0.2
0.252,-3.7,84.7,12.5,-0.82,18.7,-0.47
0.254,-4.9,83.7,10.5,-0.72,18.73,-0.42
0.256,-7.6,87.5,10.5,-0.76,18.74,-0.28
0.258,-7.6,87.9,8.2,-0.79,18.72,-0.26
0.26,-5.9,87.9,8.5,-0.82,18.84,-0.21
0.262,-5.2,86.3,8.1,-1.02,18.78,-0.03
0.264,-5.7,89.1,10.9,-1.07,18.64,-0.26
0.266,-7.6,86.1,9.3,-1.18,18.82,-0.14
0.268,-8.4,86.9,9.7,-1.25,18.75,0.05
0.27,-7.1,87,9.7,-1.36,18.75,-0.1
0.272,-6.4,87.5,8.8,-1.37,18.89,0.16
0.274,-7.9,87.7,8.3,-1.53,18.8,0.26
0.276,-7.5,88.1,11.1,-1.52,18.67,0.09
0.278,-7.2,87.2,11.1,-1.59,18.57,0.05
0.28,-6.9,86.7,10.2,-1.52,18.65,0.16
0.282,-6.3,86.5,11.2,-1.57,18.64,0.25
0.284,-7.3,86.8,12.7,-1.43,18.81,0.1
0.286,-6.5,86.5,10.8,-1.42,18.64,0.17
0.288,-5.2,86.9,11.1,-1.37,18.67,0.02
0.29,-6.6,87.5,13.3,-1.27,18.82,0.05
0.292,-8.1,86.5,13,-1.2,18.74,0.21
0.294,-7.4,86.9,12.1,-1.23,18.74,0.13
0.296,-4.8,87.3,13.7,-1.1,18.84,-0.03
0.298,-4.8,87.9,12.7,-1.08,18.74,-0.03
0.3,-6.9,87.5,12.5,-1.17,18.87,-0.02
0.302,-7.6,87,12.5,-1.13,18.64,-0.25
0.304,-7.5,87.9,14.1,-1.05,18.87,-0.12
0.306,-4.9,86.5,14.1,-1.13,18.67,-0.02
0.308,-5.8,88.6,13.5,-1.11,18.82,-0.16
0.31,-6.2,86.7,14.1,-1.14,18.8,-0.06
0.312,-6.9,86.2,13,-1.18,18.72,-0.07
0.314,-7.7,88.4,13.2,-1.25,18.96,-0.09
0.316,-6.9,87.1,14.1,-1.22,18.88,0.01
0.318,-6.5,87.7,14.8,-1.17,18.88,-0.05
0.32,-7.1,87.3,13.9,-1.26,18.75,0.01
0.322,-8.3,87.7,14.2,-1.18,18.73,-0.23
0.324,-7,86.1,14.6,-1.21,18.83,0.04
0.326,-6.1,88.2,13.9,-1.16,18.64,-0.25
0.328,-6.9,86.1,13.9,-1.4,18.95,0.23
0.33,-7.4,87,15.1,-1.17,18.71,-0.04
0.332,-7.4,87.8,15.3,-1.34,18.87,-0.02
0.334,-7.1,87.1,14.9,-1.19,18.8,0.01
0.336,-7.4,87.2,15,-1.41,18.89,0.05
0.338,-7.3,87,15.7,-1.28,18.79,-0.07
0.34,-7.2,88,15.4,-1.34,18.87,-0.09
0.342,-7.2,87.2,15.2,-1.47,18.71,0.08
0.344,-7.9,88.2,16.8,-1.31,18.98,-0.01
0.346,-6.9,87.7,16.2,-1.4,18.85,0.18
0.348,-7.1,88.3,16.6,-1.38,18.86,-0.03
0.35,-6.9,87.5,16.9,-1.37,18.98,0.08
0.352,-7.1,88.7,16.5,-1.3,18.79,0.01
0.354,-7.1,88.1,16.2,-1.52,18.96,0.12
0.356,-7.2,88.3,16.5,-1.25,19.03,-0.02
0.358,-6.6,88.4,17.3,-1.2,18.98,0.13
0.36,-8.3,89.1,17.6,-1.14,19.09,0.07
0.362,-7.2,89.6,16.9,-1.17,18.99,-0.05
0.364,-6.9,88.8,17.4,-1.02,18.92,-0.12
0.366,-7.3,89.5,16.8,-1.1,19.02,-0.05
0.368,-6.9,89.5,16.8,-1.08,18.96,-0.12
0.37,-7.2,89.2,17.7,-1.07,18.96,-0.13
0.372,-8.1,90.3,17.4,-1.15,18.9,-0.09
0.374,-8.1,90.3,17.5,-1.19,19.07,-0.18
0.376,-7.2,89.6,17.2,-1.32,18.91,-0.05
0.378,-7.1,90.6,17.9,-1.39,18.94,-0.08
0.38,-7.6,90.7,17.4,-1.4,19.09,-0.01
0.382,-8.4,88.9,17,-1.4,18.9,-0.07
0.384,-8.3,89.8,18,-1.54,19.01,0
0.386,-7.4,90,18.3,-1.49,18.86,-0.08
0.388,-7.5,89.5,17.6,-1.52,18.93,0.06
0.39,-7.4,90.5,19,-1.43,19.08,0.04
0.392,-7.6,90.5,18.8,-1.48,18.99,0.16
0.394,-7.9,90.3,18.6,-1.57,19.11,0.18
0.396,-7.2,90.9,18.2,-1.32,18.86,0.02
0.398,-7.7,91.3,19.6,-1.42,19.16,0.21
0.4,-7.7,91.2,19.7,-1.35,18.88,0.07
0.402,-7.7,91.8,19.5,-1.15,19.17,0.19
0.404,-8.3,92.4,19.7,-1.19,18.99,0.13
0.406,-7,92.3,19.3,-1.16,19,-0.12
0.408,-6.7,92.4,19.3,-1.11,19.02,-0.04
0.41,-8.6,93.8,19.5,-1.09,19.15,-0.08
0.412,-8.3,92.1,19.6,-1.22,19.09,-0.11
0.414,-6.8,92.4,20,-1.13,19.02,-0.14
0.416,-7.2,92.8,19.1,-1.24,19.09,-0.16
0.418,-7.8,92,19.5,-1.28,19.05,-0.31
0.42,-8.8,91.6,19.3,-1.3,19.05,-0.15
0.422,-8.7,91.2,19,-1.51,18.99,-0.02
0.424,-7.7,92.7,20.2,-1.33,19.21,-0.13
0.426,-6.5,90.2,19.7,-1.45,18.9,-0.07
0.428,-8.3,91.4,19.6,-1.56,19.08,0
0.43,-9,91.4,20.3,-1.38,19,-0.16
0.432,-7.8,90.2,19.7,-1.53,19.08,0.16
0.434,-6.8,90.6,20.6,-1.41,19.14,-0.15
0.436,-6.2,90.5,20.4,-1.49,18.97,0
0.438,-7.5,89.8,20.4,-1.43,19.24,0.05
0.44,-9.3,90,20.6,-1.45,19.02,0.07
0.442,-8.6,90.7,20.2,-1.44,19.21,0.08
0.444,-5.8,89.8,21.3,-1.45,18.97,0.05
0.446,-5.4,89.3,20.9,-1.45,19.1,0.13
0.448,-6.9,90.2,21.1,-1.34,18.92,-0.13
0.45,-7.4,89.1,20.9,-1.35,19.09,0.14
0.452,-7.6,89.2,21.1,-1.35,19.01,-0.15
0.454,-5.3,90,21.3,-1.51,19.11,-0.06
0.456,-5.1,89.1,21.5,-1.2,19.15,-0.26
0.458,-6.5,89,21.5,-1.39,19.16,-0.01
0.46,-7.2,89.1,20.8,-1.35,19.09,-0.27
0.462,-5.4,88.2,21.1,-1.32,19.14,-0.24
0.464,-5.1,87.9,21.4,-1.38,19.27,-0.11
0.466,-4.9,87.8,21.4,-1.39,19.16,-0.18
0.468,-5.6,87.2,21.7,-1.32,19.15,-0.27
0.47,-5.9,86.8,21.1,-1.4,19.23,0.06
0.472,-5.3,87.2,21.1,-1.43,19.04,-0.13
0.474,-5.3,86.3,21.3,-1.28,19.29,-0.11
0.476,-5,86.8,21.2,-1.47,19.23,0.13
0.478,-5,86.2,21.7,-1.34,19.32,-0.21
0.48,-4.2,85.7,22.2,-1.43,19.3,0.04
0.482,-4.6,85.6,21.3,-1.43,19.21,0.13
0.484,-4.7,85.5,21.4,-1.53,19.31,-0.09
0.486,-4.2,84,21.6,-1.58,19.24,0.03
0.488,-3.7,84.9,21.6,-1.5,19.17,-0.17
0.49,-3.4,83.5,22.1,-1.65,19.42,-0.16
0.492,-4.6,84.6,21.6,-1.53,19.29,-0.09
0.494,-4.1,82.6,22.1,-1.66,19.45,-0.11
0.496,-3,82.8,21.7,-1.46,19.27,-0.08
0.498,-3.9,82.4,21.9,-1.53,19.43,-0.07
0.5,-3.7,82.2,21.8,-1.35,19.36,-0.17
0.502,-2.5,81.9,22.3,-1.47,19.38,-0.13
0.504,-2.7,82.1,21.6,-1.53,19.26,-0.1
0.506,-2.8,81.4,23,-1.29,19.48,-0.07
0.508,-2.3,81,22.1,-1.32,19.5,0.06
0.51,-2,82.4,21.5,-1.46,19.3,-0.18
0.512,-1.2,78.1,21.3,-1.42,19.42,0.01
0.514,-2.3,81,22.3,-1.44,19.47,0.13
0.516,-1.8,80.2,21.8,-1.39,19.38,-0.24
0.518,-1.1,79.4,21.9,-1.34,19.32,-0.09
0.52,-0.6,79.8,22.2,-1.48,19.4,-0.06
0.522,-1.6,80.5,22.5,-1.38,19.53,-0.28
0.524,-1.2,79.3,21.6,-1.58,19.4,-0.08
0.526,-0.6,80.7,21.6,-1.68,19.38,0
0.528,-0.9,80.9,22.8,-1.55,19.44,-0.25
0.53,0.4,78,21.5,-1.7,19.35,-0.05
0.532,-0.8,78.5,22.6,-1.56,19.53,-0.08
0.534,-0.7,79.3,22.7,-1.59,19.5,-0.15
0.536,0.1,78.7,21.5,-1.66,19.49,-0.3
0.538,0.9,77.1,22.3,-1.6,19.4,-0.15
0.54,0.4,77.4,22.3,-1.56,19.62,-0.28
0.542,1.1,74.6,21.8,-1.58,19.41,-0.06
0.544,0.5,77.3,21.9,-1.58,19.67,-0.11
0.546,0.7,76.1,22.6,-1.56,19.58,-0.02
0.548,1.6,75.1,22,-1.57,19.55,0
0.55,3.2,76.7,21.9,-1.49,19.49,-0.15
0.552,2.1,73.9,21.5,-1.52,19.53,-0.14
0.554,1.6,74.4,22.5,-1.38,19.57,0.04
0.556,2.2,74.9,22.3,-1.75,19.51,-0.11
0.558,3.4,73.1,21.7,-1.64,19.51,0.02
0.56,2.7,74.2,22.5,-1.5,19.67,-0.05
0.562,2.3,74.1,22.3,-1.49,19.59,-0.05
0.564,3,72.6,21.2,-1.56,19.52,-0.26
0.566,2.9,72.2,21.1,-1.56,19.49,-0.1
0.568,2.7,73.9,21.6,-1.69,19.55,-0.08
0.57,4.3,71.3,21.2,-1.69,19.53,-0.11
0.572,3.9,71.8,21.6,-1.52,19.63,-0.14
0.574,3.8,71.8,21.7,-1.66,19.57,-0.18
0.576,3.9,69.3,21.7,-1.69,19.68,-0.05
0.578,5.6,68.7,21.1,-1.52,19.58,-0.12
0.58,5.1,71.6,21.6,-1.6,19.71,-0.11
0.582,6,68.9,21.2,-1.67,19.48,-0.3
0.584,5.6,67.9,21.1,-1.74,19.6,-0.11
0.586,5.1,69.2,20.9,-1.51,19.55,-0.07
0.588,5.3,69.3,21.3,-1.67,19.83,-0.05
0.59,5.2,67.6,20.1,-1.62,19.64,-0.15
0.592,6.7,67.2,20.1,-1.7,19.64,-0.01
0.594,5.3,67.6,19.8,-1.59,19.76,-0.15
0.596,6.9,65.8,20.2,-1.73,19.61,-0.04
0.598,7.2,66.5,20.2,-1.73,19.7,-0.04
0.6,7.2,66.8,20,-1.73,19.72,-0.04
0.602,6.2,64.9,19.7,-1.59,19.69,-0.21
0.604,7,64.1,18.8,-1.77,19.71,0
0.606,7,64.1,18.6,-1.57,19.64,-0.13
0.608,5.4,64.5,19.6,-1.84,19.72,-0.15
0.61,8.5,62,18.8,-1.89,19.45,-0.11
0.612,7.5,64.7,19,-1.85,19.69,-0.14
0.614,7,64.6,18.8,-1.51,19.8,-0.12
0.616,8.1,63,19,-1.71,19.83,0.07
0.618,8.1,64.8,18.3,-1.69,19.7,-0.25
0.62,9.1,61.8,17.7,-1.69,19.83,-0.22
0.622,9,61.9,18.8,-1.74,19.77,-0.01
0.624,8.6,63,18.3,-1.52,19.84,-0.28
0.626,8.8,61.1,17.5,-1.88,19.9,0.05
0.628,9.1,60.8,17.4,-1.52,19.79,-0.13
0.63,9,60.4,16.7,-1.68,19.79,0.08
0.632,10,60.6,17.2,-1.78,19.61,-0.24
0.634,9.1,57.4,16.3,-1.73,19.69,-0.02
0.636,9.9,58.5,17.3,-1.7,19.75,-0.02
0.638,9.3,58.7,16.8,-1.79,19.8,-0.1
0.64,10.2,58,16.5,-1.53,19.81,-0.13
0.642,10.2,58.2,16.6,-1.73,20.06,-0.01
0.644,10.7,57.8,16.3,-1.74,19.76,-0.16
0.646,9.6,56.1,15.6,-1.75,19.93,-0.22
0.648,10.7,56.9,15.9,-1.73,19.79,-0.08
0.65,10.8,55.3,15.5,-1.72,19.91,-0.12
0.652,11.2,54.5,15.3,-1.9,19.75,-0.01
0.654,10.5,56.1,15.3,-1.64,20.02,-0.13
0.656,10.1,52.4,14.8,-1.78,19.85,-0.01
0.658,10.5,53.8,14.7,-1.73,19.9,0
0.66,10.3,51.7,14.3,-1.69,20.06,0.03
0.662,12.6,50.9,13.8,-1.92,19.78,0.04
0.664,12.6,50.8,14,-1.84,19.82,-0.05
0.666,11.3,50.9,13.2,-1.74,20.03,0.04
0.668,12.1,50.6,13.7,-1.94,19.85,-0.06
0.67,12.2,49.4,13.5,-1.9,19.81,-0.1
0.672,11.5,49.2,13.5,-1.75,20.09,0.19
0.674,11.4,49.2,12.9,-1.81,19.89,0
0.676,12,48.9,12.7,-1.72,19.99,-0.1
0.678,12.8,49,13,-1.73,19.99,-0.07
0.68,11.5,46.6,12.3,-1.8,19.89,-0.08
0.682,11.6,48.3,12,-1.82,20.12,-0.06
0.684,12.9,46.3,11.8,-1.69,19.94,-0.09
0.686,12.1,46.9,10.2,-1.81,20.09,0.04
0.688,11.4,46.6,10.2,-1.77,19.94,0.05
0.69,12.6,47.1,10.8,-1.85,19.9,-0.14
0.692,12.4,46.7,9.6,-1.9,19.97,-0.01
0.694,13.1,47,10.8,-1.77,19.95,-0.06
0.696,12.8,45.3,10.6,-1.67,20.11,0.01
0.698,13,46.1,7.8,-1.98,19.85,0.09
0.7,12.7,45.9,8.9,-1.95,20.02,-0.04
0.702,12.7,45.9,8.3,-1.9,19.86,-0.1
0.704,11.7,46.9,8.3,-1.79,20.21,0.04
0.706,11.9,44.5,7.3,-1.64,20.1,0.02
0.708,12.6,42.5,7.9,-1.93,19.98,-0.03
0.71,10.7,45.1,7.8,-1.93,19.99,0.02
0.712,12.5,43.6,7,-1.56,20.11,-0.14
0.714,10.7,43.7,6.4,-1.93,20.13,0.19
0.716,11.3,45.5,5.7,-1.83,20.1,-0.08
0.718,12.8,43.8,5.3,-1.93,20,-0.03
0.72,12,45.9,5.3,-1.93,20.12,-0.05
0.722,9.8,44.4,6.2,-1.79,20.23,0.01
0.724,11.8,45,5.5,-1.67,20.14,0.07
0.726,12.1,44.9,3.8,-2.01,20.06,0.05
0.728,13.1,46.4,3.7,-1.94,20.09,-0.02
0.73,10.5,44.4,4.3,-1.84,20.27,0.15
0.732,9.5,45,3.3,-1.75,20.2,0.14
0.734,11.8,46.4,3.6,-2,20.17,0.06
0.736,10,44.7,2,-1.92,20.11,0.07
0.738,11.3,45.4,2.1,-1.91,20.17,0.1
0.74,11.4,46.7,2.3,-1.88,20.16,0.09
0.742,10.1,45.2,1.9,-1.96,20.14,0.15
0.744,9.1,45.2,1.2,-1.84,20.23,-0.01
0.746,10.3,47.8,0.6,-1.87,20.22,0.16
0.748,12.5,45.5,0.8,-2.01,20.13,0.15
0.75,10.1,47.5,0,-1.85,20.16,-0.02
0.752,7.9,45.2,-1.5,-2.02,20.19,0.19
0.754,8.9,46.8,-0.7,-1.86,20.16,0.17
0.756,10,49,-1.2,-1.92,20.25,0.18
0.758,10.1,49,-0.7,-2.03,20.24,0.08
0.76,10.7,47.4,-3.3,-2.04,20.08,0.15
0.762,8.2,49,-1.3,-1.83,20.36,0.17
0.764,7.5,51,-2.5,-1.9,20.34,0.34
0.766,9.6,51.1,-3.7,-1.92,20.13,0.14
0.768,9,51.8,-4.9,-2.02,20.32,0.32
0.77,8.6,54.1,-3.7,-1.83,20.34,0.07
0.772,7.4,52.6,-5.2,-1.82,20.41,0.24
0.774,7.1,53.2,-5.3,-1.86,20.13,0.21
0.776,6.1,53,-5.8,-1.99,20.19,0.26
0.778,4.7,54.3,-6.1,-1.79,20.3,0.02
0.78,7.4,56.2,-7.1,-1.94,20.27,0.38
0.782,6,59,-5.9,-1.88,20.32,0.04
0.784,3.8,56.9,-7.5,-1.87,20.27,0.17
0.786,5.3,60,-7.5,-1.94,20.26,0.13
0.788,2,58.5,-7.7,-1.83,20.36,0.17
0.79,4.9,61.3,-6.7,-1.98,20.15,0.14
0.792,3.4,59.6,-8,-1.92,20.54,0.13
0.794,4.4,66.1,-8.8,-1.77,20.23,0.11
0.796,1.5,62.7,-9.9,-1.93,20.52,0.45
0.798,1.1,67.2,-11.2,-1.82,20.15,0.15
0.8,1.8,63.7,-11.8,-1.96,20.51,0.25
0.802,2.5,68.8,-10.7,-1.83,20.32,0.29
0.804,0.2,67.2,-10.8,-1.87,20.61,0.26
0.806,5.1,71.5,-10.8,-1.85,20.23,0.26
0.808,0.6,68.2,-11.4,-1.79,20.65,0.26
0.81,3,72.3,-13.1,-1.97,20.15,0.36
0.812,0.7,72,-12.9,-1.81,20.53,0.17
0.814,-0.9,74.6,-12.1,-1.84,20.57,0.22
0.816,-1.3,73.1,-12.4,-1.84,20.47,0.08
0.818,-0.9,77.4,-13,-1.84,20.38,0.1
0.82,0,77.4,-13.1,-1.83,20.59,0.16
0.822,-0.4,82.2,-12.7,-1.81,20.48,0.12
0.824,-0.1,80.4,-13.5,-1.71,20.56,0.25
0.826,-3.2,82.5,-14,-1.7,20.63,0.29
0.828,-2.6,82.7,-13.9,-1.76,20.48,0.1
0.83,-1.1,86.3,-13.7,-1.9,20.47,0.33
0.832,-1.6,87.6,-15.2,-1.73,20.63,0.2
0.834,-3.7,89,-14.5,-1.87,20.49,0.37
0.836,-2.8,88.1,-15.7,-1.68,20.58,0.31
0.838,-2.5,88.6,-12.9,-1.81,20.59,0.35
0.84,-2.5,94.7,-15,-1.86,20.53,0.33
0.842,-3.7,93,-14.5,-1.67,20.69,0.15
0.844,-5.7,93.8,-15.7,-1.63,20.45,0.23
0.846,-6.2,96.6,-16.7,-1.82,20.63,0.28
0.848,-6.8,95.4,-15.4,-1.56,20.67,0.06
0.85,-4.6,100.6,-15.8,-1.86,20.55,0.27
0.852,-7.2,101.9,-15.9,-1.54,20.87,-0.01
0.854,-7.1,101.2,-16.8,-1.63,20.68,0.34
0.856,-5.2,106.1,-16.6,-1.87,20.66,0.23
0.858,-7.5,104.3,-16.7,-1.56,20.66,0.21
0.86,-6.1,107.4,-18.4,-1.83,20.64,0.29
0.862,-7.7,108.9,-18.7,-1.66,20.61,0.31
0.864,-8.4,110.3,-17.3,-1.69,20.64,0.2
0.866,-6.5,109.9,-16.5,-1.94,20.63,0.46
0.868,-7.9,113.6,-17.3,-1.67,20.77,0.11
0.87,-9,113.2,-15.4,-1.83,20.8,0.37
0.872,-9.6,116.9,-16.1,-1.51,20.94,0.18
0.874,-7.8,118.1,-18.9,-1.75,20.6,0.14
0.876,-4.9,122.1,-16.5,-1.81,20.8,0.32
0.878,-8.2,125,-16.3,-1.63,20.65,0.18
0.88,-10.1,123.5,-18.4,-1.7,20.94,0.34
0.882,-9.4,125.4,-17,-1.56,20.69,0.3
0.884,-10.7,129.5,-15.9,-1.61,20.82,0.22
0.886,-10.9,127.8,-16.2,-1.68,20.82,0.29
0.888,-11.2,130.9,-17.9,-1.52,20.92,0.15
0.89,-10.9,134.1,-17.7,-1.5,20.76,0.03
0.892,-11.2,131.6,-17.5,-1.55,20.9,0.21
0.894,-10.2,139.5,-17,-1.39,20.74,-0.06
0.896,-13.7,135.8,-18.6,-1.6,21.01,0.28
0.898,-10.7,141.6,-14.5,-1.44,20.84,0.13
0.9,-11.6,141.6,-17.7,-1.53,20.95,0.23
0.902,-13.2,142.8,-19.1,-1.61,20.87,0.25
0.904,-11.6,145.3,-17.3,-1.47,20.92,0.19
0.906,-11.6,146.7,-17.4,-1.54,20.9,0.26
0.908,-10.8,151.3,-15.7,-1.51,21.08,0.19
0.91,-8.3,152.3,-16.3,-1.55,20.88,0.28
0.912,-12.8,153.3,-16.5,-1.64,21,0.3
0.914,-13.3,155.4,-16.5,-1.54,20.97,0.29
0.916,-13.5,155,-16,-1.41,21.03,0.14
0.918,-12.7,156.7,-17.5,-1.53,20.97,0.16
0.92,-14.6,158.7,-16.6,-1.48,21,0.05
0.922,-11.4,166,-16.1,-1.51,20.77,0.06
0.924,-14.4,162.1,-11.4,-1.32,21.24,0.14
0.926,-12.3,165.6,-15.1,-1.38,20.79,0.35
0.928,-16.5,171,-13.5,-1.83,21.21,0.12
0.93,-11.4,167.2,-14.5,-1.65,20.88,0.34
0.932,-16.5,169.5,-14,-1.4,21.21,0.25
0.934,-15.4,171.7,-14.4,-1.47,21.13,0.23
0.936,-14.6,175.9,-12.7,-1.32,21.14,-0.07
0.938,-12.7,176.4,-10.7,-1.2,21.23,0.12
0.94,-16.5,178.7,-12,-1.55,21.43,0.17
0.942,-13.1,181,-15.6,-1.35,21.08,0.01
0.944,-16.9,177,-14.3,-1.39,21.48,0.24
0.946,-14.1,181.9,-14.5,-1.53,20.97,0.28
0.948,-12.2,184.2,-11.7,-1.28,21.48,-0.31
0.95,-13,183.2,-12.8,-1.56,21.2,0.4
0.952,-16.5,186.2,-12.4,-1.27,21.33,0
0.954,-18.4,188.2,-14.7,-1.62,21.37,0.32
0.956,-15.1,186.9,-10.3,-1.37,21.26,-0.06
0.958,-12.7,196,-11.7,-1.54,21.44,0.27
0.96,-15.8,197,-9.3,-1.23,21.28,-0.15
0.962,-13.5,192.8,-12.6,-1.39,21.16,0.48
0.964,-14.9,200,-8.3,-1.36,21.24,0.1
0.966,-13.8,199.2,-8.7,-1.47,21.25,0.29
0.968,-15.6,201.3,-10.6,-1.07,21.37,0.04
0.97,-14.1,202.3,-9.3,-1.41,21.37,0.45
0.972,-14,206.7,-9.2,-1.2,21.27,0.07
0.974,-14.7,203.5,-8.2,-1.36,21.33,0.35
0.976,-17.4,209.6,-8.9,-1.2,21.15,0.12
0.978,-12.1,211.2,-7,-1.36,21.46,0.17
0.98,-15.5,215.8,-8,-1.26,21.38,0.14
0.982,-17,211.2,-6.8,-1.31,21.38,0.18
0.984,-17.9,215,-8.1,-1.31,21.28,0.14
0.986,-15.6,213.6,-5.9,-1.12,21.52,0
0.988,-17.4,216.5,-8.6,-1.33,21.3,0.26
0.99,-16.9,219.9,-5.4,-1.26,21.48,0.21
0.992,-18.4,221.2,-4.7,-1.17,21.35,-0.02
0.994,-15.6,221.6,-6.9,-1.27,21.46,0.24
0.996,-14.2,223,-3.7,-1.29,21.39,0.2
0.998,-20.1,226.5,-4.9,-1.39,21.66,0.07
1,-18.4,226.5,-5.4,-1.37,21.47,0.34
1.002,-14.8,234.2,-2.1,-1.17,21.75,0.23
1.004,-14.9,232.3,-0.5,-1.37,21.47,0.17
1.006,-20.3,231.2,-1.5,-1.41,21.52,0.19
1.008,-21.8,231.3,-3.6,-1.2,21.6,0.27
1.01,-19.2,239.1,-2.9,-1.4,21.57,0.21
1.012,-18.8,236.8,-1.3,-1.4,21.71,0.24
1.014,-19.8,242.2,-1,-1.15,21.79,0.2
1.016,-15,245.9,-1.4,-1.37,21.32,0.23
1.018,-16.1,245.9,3.4,-1.09,21.72,0.2
1.02,-22.8,247.2,1.4,-1.16,21.54,0.24
1.022,-18.8,248.7,0.8,-1.13,21.5,-0.11
1.024,-17.2,248.1,0.6,-1.36,21.59,0.33
1.026,-17.1,250.9,1.4,-1.16,21.54,0.12
1.028,-22,250.9,1.4,-1.43,21.59,0.09
1.03,-22.1,251.5,2,-1.31,21.71,0.37
1.032,-22.1,252.4,2.5,-1.1,21.77,0.18
1.034,-19,263.4,2.2,-1.21,21.66,-0.07
1.036,-20.7,258.7,3.6,-1.24,21.74,0.03
1.038,-20.6,261.4,1.1,-1.27,21.66,0.22
1.04,-19.6,264.1,3.6,-1.34,21.73,0.03
1.042,-18.8,267.8,3.2,-1.43,21.53,0.33
1.044,-18.4,266,6.7,-1.25,21.7,-0.07
1.046,-20.3,264.2,4.6,-1.46,21.6,0.16
1.048,-24.2,266.7,4.8,-1.23,21.82,0.08
1.05,-21.2,270.6,5.8,-1.27,21.65,0.05
1.052,-23.4,269.7,6.3,-1.43,21.74,0.25
1.054,-21.1,274.9,3.9,-1.32,21.81,0.28
1.056,-24.4,272.8,5.6,-1.23,21.94,0.16
1.058,-17.5,277.9,6.9,-1.52,21.72,0.23
1.06,-20.3,275.3,7.1,-1.28,21.82,0.39
1.062,-22,279.7,6.6,-1.44,21.63,0.33
1.064,-19.5,280.4,7.7,-1.31,21.86,0.13
1.066,-23.9,279.3,4.7,-1.2,21.67,0.34
1.068,-23.7,284.3,6.7,-1.3,21.96,0.25
1.07,-21.9,282.3,9.7,-1.19,21.87,-0.06
1.072,-21.9,288.4,11.1,-1.25,22.02,0.41
1.074,-26.1,293.9,11.2,-1.11,22.01,0.06
1.076,-24.6,287.7,7.8,-1.28,21.95,0.07
1.078,-21.6,295.4,10.3,-1.08,21.82,0.17
1.08,-23.5,295,10.9,-1.41,22.02,0.18
1.082,-22.5,293.4,8,-1.36,21.61,0
1.084,-23.1,297.4,14.7,-1.23,22,0.26
1.086,-28.2,295.6,11.9,-1.29,21.89,0.28
1.088,-24.7,299.8,11.1,-1.47,21.99,-0.02
1.09,-23,303.3,11.1,-1.16,22.05,0.18
1.092,-26.5,304.8,14.4,-1.42,22,0.23
1.094,-22.3,304.7,9,-1.47,21.89,0.06
1.096,-22.1,305.6,11.4,-1.22,22.07,-0.02
1.098,-27.2,298.9,11.1,-1.58,21.84,0.4
1.1,-27.8,311.1,13,-1.3,22.05,-0.06
1.102,-27.5,308.4,14.6,-1.5,21.88,-0.04
1.104,-23.5,301.9,13,-1.56,21.88,0.35
1.106,-30.4,310.2,14.5,-1.38,21.98,-0.09
1.108,-28.5,311,13.1,-1.34,22.03,0.04
1.11,-27.7,312.3,13,-1.56,22.03,0.31
1.112,-28.3,314.2,13.4,-1.48,21.96,0.17
1.114,-23,321.8,9.3,-1.34,22.09,0.01
1.116,-19.4,320.4,15.5,-1.43,22,0.28
1.118,-32.2,317.9,15.4,-1.21,22.24,0
1.12,-24.5,321.6,15.1,-1.49,22.08,0.04
1.122,-30.9,322.4,14.8,-1.4,22.16,0.19
1.124,-23.3,323.8,16.4,-1.3,22.21,-0.01
1.126,-25.9,323.6,11.3,-1.49,22.08,0
1.128,-21.2,329.6,16,-1.51,22.1,0.12
1.13,-28.4,324.2,15,-1.42,22.07,0
1.132,-32.5,323.8,15,-1.39,22.17,0.06
1.134,-28.6,331.7,14.7,-1.38,22.22,0.02
1.136,-24.6,328.7,14.5,-1.4,22.12,-0.1
1.138,-26.6,333.4,13.5,-1.42,22.14,0.02
1.14,-29.1,334.6,14.8,-1.28,22.22,-0.06
1.142,-33,333,10.4,-1.5,22.19,0.15
1.144,-26.1,331.8,17,-1.59,22.1,-0.06
1.146,-28.6,334,15.5,-1.61,22.12,0.01
1.148,-23.6,337.2,14.8,-1.5,22.26,0.05
1.15,-27.2,337.2,16,-1.43,22.22,0.06
1.152,-30.8,333,14.1,-1.63,22.19,-0.19
1.154,-25.1,339.5,15.1,-1.61,22,0.01
1.156,-29.1,337.8,16.3,-1.53,22.28,0.04
1.158,-30.5,339.9,16.5,-1.57,22.19,-0.11
1.16,-22.7,337.1,17.2,-1.71,22.15,0.01
1.162,-32.8,337.1,16.3,-1.47,22.2,0.05
1.164,-29.7,344.9,16.5,-1.58,22.24,0.02
1.166,-31.7,342.8,11.8,-1.57,22.14,-0.06
1.168,-23,345.4,14.7,-1.52,22.34,0.15
1.17,-17.9,343.6,20.2,-1.51,22.03,-0.1
1.172,-32.6,346.1,14.4,-1.48,22.4,-0.11
1.174,-28.8,343.2,13.6,-1.6,22.14,-0.07
1.176,-25.3,348.8,15.2,-1.71,22.3,-0.03
1.178,-22.2,348.8,16.4,-1.48,22.38,-0.34
1.18,-24.6,341.8,14.8,-1.45,22.3,-0.26
1.182,-27.7,352.4,15.3,-1.63,22.21,-0.03
1.184,-25.8,347.4,15.6,-1.47,22.35,-0.25
1.186,-20.3,348.9,15.9,-1.54,22.19,-0.23
1.188,-32,345.5,12.8,-1.51,22.31,-0.13
1.19,-31.7,349.5,12.3,-1.73,22.19,0.18
1.192,-29.2,350.9,11.8,-1.55,22.32,-0.29
1.194,-22.8,351,17.8,-1.5,22.31,0.04
1.196,-27,352,13.8,-1.61,22.28,0.04
1.198,-27.2,351.3,15.4,-1.59,22.32,-0.32
1.2,-28.1,351.7,15.7,-1.69,22.28,-0.27
1.202,-30.7,349.3,13.6,-1.6,22.31,-0.12
1.204,-27.2,349.7,13.7,-1.51,22.44,-0.26
1.206,-24.7,351.9,14.6,-1.85,22.23,-0.14
1.208,-24,354.2,14.6,-1.88,22.36,-0.15
1.21,-25.4,355.3,15,-1.73,22.3,-0.28
1.212,-25.4,354.6,14.5,-1.9,22.36,-0.2
1.214,-27.9,357,12.7,-1.77,22.43,-0.08
1.216,-18.5,354.2,15.1,-1.64,22.33,-0.38
1.218,-22.2,355.5,16.6,-1.67,22.25,-0.14
1.22,-27.7,356,7.3,-1.77,22.31,-0.25
1.222,-23.7,352.1,12.1,-1.91,22.34,-0.05
1.224,-15.9,357,15.6,-1.7,22.22,-0.2
1.226,-22.3,355.1,13.1,-1.88,22.27,-0.01
1.228,-18.7,356.2,16.9,-1.71,22.29,-0.2
1.23,-22.1,354.5,14,-1.9,22.42,-0.06
1.232,-18.9,352.1,12.8,-1.71,22.38,-0.21
1.234,-22.5,347.6,7.8,-1.78,22.43,-0.23
1.236,-30.8,357.4,4.1,-1.6,22.27,-0.19
1.238,-27,349.3,13.2,-1.73,22.36,-0.31
1.24,-20.2,356.7,12.7,-1.6,22.29,-0.15
1.242,-15.3,358.1,14.4,-1.86,22.3,-0.33
1.244,-24,349.3,11.1,-1.76,22.26,-0.19
1.246,-21.6,356,7.4,-1.76,22.31,-0.34
1.248,-13.1,359.8,10.7,-1.7,22.37,-0.1
1.25,-15.4,359.8,15.8,-1.88,22.25,-0.39
1.252,-21.7,349.1,11.2,-1.71,22.55,-0.09
1.254,-25.1,355.1,11.6,-1.66,22.47,-0.39
1.256,-20.8,351.2,8.7,-1.82,22.25,-0.11
1.258,-19.8,359.9,12,-1.67,22.52,-0.31
1.26,-16.4,359.1,7.5,-1.85,22.22,-0.09
1.262,-17,353.7,12.3,-1.88,22.45,-0.28
1.264,-17,362.4,12,-1.78,22.42,-0.13
1.266,-19.1,353.9,15.3,-1.69,22.56,-0.45
1.268,-12.6,351.9,11.9,-1.89,22.31,-0.1
1.27,-15.3,354.1,9,-1.8,22.47,-0.37
1.272,-17.4,360.3,10,-1.62,22.39,-0.33
1.274,-20.7,354.6,7.7,-1.91,22.36,-0.3
1.276,-10,363.4,8.1,-1.81,22.29,-0.19
1.278,-18.2,364.4,11.8,-1.68,22.34,-0.22
1.28,-8.6,358,12.7,-1.64,22.4,-0.27
1.282,-17,360,5.2,-2.05,22.18,-0.09
1.284,-7.4,360.7,13.9,-2.07,22.36,-0.01
1.286,-14.8,354.2,11,-1.74,22.47,-0.34
1.288,-13.3,360.9,3.8,-1.95,22.35,-0.11
1.29,-11.4,363.8,5.7,-1.94,22.36,-0.1
1.292,-11.2,364.5,11.6,-1.64,22.44,-0.27
1.294,-5.7,371,7.6,-1.5,22.39,-0.07
1.296,0.8,368.2,8.5,-1.98,22.29,0
1.298,-12.3,364.3,8.5,-1.85,22.28,-0.01
1.3,-11,367.1,7.2,-1.74,22.45,0.07
1.302,-4.6,360,8.5,-1.89,22.39,-0.01
1.304,-10.7,372.3,16.1,-1.66,22.46,-0.19
1.306,-14.8,364.5,8.8,-1.67,22.4,0.06
1.308,-15.3,369.7,8.3,-1.83,22.34,0
1.31,-13.7,369.8,10.6,-1.81,22.46,-0.1
1.312,-6,369.8,7.3,-1.96,22.22,0.07
1.314,-3.2,371.4,8.1,-1.86,22.46,-0.06
1.316,-16.5,368.6,3.7,-1.88,22.41,-0.04
1.318,-5.6,370.3,9.6,-1.83,22.44,-0.01
1.32,-16.5,372.7,8.6,-1.77,22.4,-0.2
1.322,-9.7,373.7,7,-1.75,22.45,0
1.324,-3.8,365.7,13,-1.76,22.6,0.1
1.326,-8.9,381.5,10.7,-1.78,22.5,0.08
1.328,-12.1,376.8,9.4,-2.13,22.26,-0.07
1.33,-3.2,364.8,9.7,-2.05,22.42,0.11
1.332,-2.4,375.5,14.1,-1.78,22.57,-0.03
1.334,-6.5,379.1,10.9,-1.81,22.46,0.09
1.336,-4.6,378,6.9,-1.91,22.42,0.02
1.338,-3.6,386.1,8.4,-1.89,22.5,-0.04
1.34,-4.8,388.5,7.5,-1.84,22.41,0.17
1.342,-3.9,377.4,8.1,-1.72,22.42,-0.06
1.344,-12,388.7,4.2,-2,22.53,0.1
1.346,-11.7,379.1,6.4,-1.91,22.44,0.17
1.348,-7.8,386.1,11.3,-1.89,22.55,0.16
1.35,-7.3,386.8,8.3,-1.95,22.52,-0.01
1.352,-6.2,391.7,5.3,-1.92,22.46,0.44
1.354,-3.8,390.6,10.6,-1.92,22.49,0.13
1.356,-11.4,389,7.9,-2.09,22.41,0.03
1.358,-17.4,388.9,1.5,-1.92,22.57,0.3
1.36,-7,387.8,9.7,-1.89,22.41,0.18
1.362,-15.7,397.6,0.6,-2.05,22.52,0.29
1.364,-11.9,393.5,1.8,-2.08,22.39,0.16
1.366,-8.7,394.1,3.1,-2.11,22.58,0.47
1.368,-6.8,401.1,1.8,-2.17,22.25,0.14
1.37,-10,395.2,3.2,-2.2,22.49,0.3
1.372,-8.8,397,3.2,-2.01,22.49,0.27
1.374,-19.5,401.5,-0.7,-2.15,22.47,0.2
1.376,-10.7,403.6,2.5,-2.13,22.54,0.4
1.378,-10.8,399.9,5.7,-2.11,22.52,0.01
1.38,-2.9,408.3,4.8,-2.18,22.45,0.24
1.382,-4.6,399.3,10.7,-2.17,22.37,0.28
1.384,-9.4,413,5.2,-2.19,22.4,0.39
1.386,-4.9,407,4.1,-2.2,22.35,-0.03
1.388,-11.8,402.4,0.7,-2.21,22.32,0.22
1.39,-18.9,408,0.6,-2.12,22.44,0.31
1.392,-11.9,412.7,-0.5,-2.07,22.6,0.34
1.394,-1.9,405.8,2.6,-2.27,22.37,0.24
1.396,-17.1,402.2,-5,-2.25,22.46,0.23
1.398,-3,421,1.5,-1.99,22.46,0.02
1.4,-4.4,412.5,6.4,-2.28,22.48,0.59
1.402,-10.3,412.9,3.9,-2.14,22.41,0.17
1.404,-3.2,416.5,-1.4,-2.16,22.56,0.38
1.406,-4.9,420.9,-2.5,-2.31,22.33,0.5
1.408,-3.1,424.9,0.4,-2.17,22.51,0.03
1.41,-2,423.3,2.5,-2.21,22.28,0.53
1.412,-6.8,416.3,5.5,-2.22,22.53,0.56
1.414,-1.6,417.3,5.2,-2.14,22.44,0
1.416,-6.3,428.3,-2.9,-2.25,22.59,0.63
1.418,-10.1,425.8,-7.9,-2.05,22.45,0.38
1.42,-8.3,424.4,1.5,-1.93,22.6,0.23
1.422,-13.6,426.5,-6.1,-2.31,22.32,0.59
1.424,-11.8,423.6,-3.1,-1.88,22.48,0.03
1.426,-0.4,431.4,-1.1,-2.02,22.48,0.18
1.428,-2.8,425.6,-0.2,-1.95,22.58,0.61
1.43,-6,425.6,-5.8,-2.11,22.45,0.37
1.432,-0.7,440.5,0.6,-2.12,22.37,0.17
1.434,-5.6,423.7,-5.1,-2.18,22.55,0.43
1.436,-12.3,425.7,-12.3,-2.05,22.41,0.35
1.438,-11.4,426,-8.1,-2.18,22.44,0.6
1.44,-15.6,423.7,-5.8,-2.14,22.4,0.52
1.442,-9.3,428.9,-10.4,-2.18,22.42,0.47
1.444,-9.4,432.1,-4.7,-2.06,22.32,0.29
1.446,-9.6,416.2,-0.7,-2.17,22.38,0.53
1.448,-14.2,422.1,-12.6,-2.26,22.36,0.32
1.45,-6.6,421.9,-7.9,-2.25,22.39,0.34
1.452,-7.2,417.6,-12.8,-2.15,22.54,0.54
1.454,-0.8,430.3,-11.6,-2.17,22.46,0.48
1.456,-6.8,415.3,-11.1,-2.15,22.37,0.38
1.458,-2.3,423.1,-6.4,-2.17,22.54,0.69
1.46,-2.1,420.4,-8.1,-2.04,22.54,0.3
1.462,-10.2,413.4,-7.5,-2.02,22.43,0.33
1.464,-12.2,420.8,-7.2,-1.91,22.51,0.51
1.466,-10.4,418.6,-13.4,-1.95,22.39,0.28
1.468,0.7,420.1,-9.8,-1.94,22.36,0.23
1.47,-15.5,407.8,-11.2,-1.88,22.49,0.41
1.472,-2.9,413.4,-8.2,-1.78,22.46,0.39
1.474,-3.1,405.7,-12.6,-1.84,22.49,0.54
1.476,3.9,408.8,-7.9,-1.95,22.34,0.57
1.478,-5.1,406,-11.2,-1.74,22.41,0.43
1.48,-0.6,406,-7.5,-1.85,22.23,0.53
1.482,-3.7,400.1,-5.6,-1.84,22.44,0.61
1.484,6,405.3,-7,-1.82,22.24,0.31
1.486,-16.7,393.6,-13.4,-1.94,22.36,0.8
1.488,-17.6,395.6,-9.5,-1.89,22.39,0.75
1.49,-4.3,391.3,-5.6,-1.79,22.29,0.3
1.492,-3.4,388.9,-7.6,-1.92,22.43,0.92
1.494,-3.4,388.7,-9.3,-1.96,22.26,0.76
1.496,-19.1,387.3,-10.7,-1.95,22.27,0.66
1.498,-4.3,383.2,-12.1,-1.93,22.37,0.71
1.5,-0.2,383.6,-12.8,-1.83,22.24,0.65
1.502,3,383.1,-4.3,-1.81,22.31,0.65
1.504,-1.3,389.9,-6.4,-1.62,22.43,0.64
1.506,-6.7,378.4,-10.3,-1.97,22.13,0.65
1.508,-1.6,381.2,-9.3,-1.8,22.29,0.64
1.51,-4.9,373.7,-7.4,-1.76,22.25,0.55
1.512,-13.2,363.1,-15.8,-1.63,22.33,0.74
1.514,-1.9,379.8,-10.7,-1.53,22.36,0.84
1.516,-4.4,380.1,0.7,-1.85,22.21,0.74
1.518,-13.8,366.5,-6.8,-1.56,22.21,0.59
1.52,-3.8,375.7,-9.6,-1.66,22.29,0.7
1.522,-2.5,367.2,-9.8,-1.53,22.16,0.71
1.524,3.4,363.5,-7.2,-1.49,22.17,0.5
1.526,-0.2,373.2,-9.3,-1.49,22.17,0.74
1.528,-17.6,361.4,-19.8,-1.59,22.12,0.52
1.53,-11.1,359.1,-9.5,-1.63,22.13,0.71
1.532,-2.5,363.3,0.4,-1.68,22.08,0.59
1.534,-13.9,361.2,-12.1,-1.64,22.05,0.89
1.536,-0.6,358.3,-4.6,-1.54,21.97,0.71
1.538,-17.3,351.3,-9.6,-1.63,21.91,0.78
1.54,-9,370.1,-14.2,-1.44,22.06,1.02
1.542,-11.1,352.1,-6.3,-1.72,22,0.93
1.544,-3.6,359.2,-3,-1.42,21.95,0.98
1.546,-17,337.1,1.2,-1.67,21.87,0.97
1.548,-17.8,341.8,-8.3,-1.52,21.84,0.85
1.55,0.9,351.3,-2.3,-1.55,21.99,0.96
1.552,-8.5,345.5,-6.8,-1.56,21.9,1.04
1.554,-6.5,356.1,-8.4,-1.49,21.87,1.02
1.556,-10.7,358.4,2.2,-1.5,22.04,0.9
1.558,-5.4,345.5,-1.7,-1.64,21.75,0.89
1.56,-15.3,352.1,0.1,-1.53,21.98,0.9
1.562,-5.5,352.7,1.9,-1.58,21.82,0.97
1.564,-16.8,343.5,0.9,-1.52,21.94,0.97
1.566,-11.2,345.4,-5.4,-1.47,21.9,0.9
1.568,-24.9,348.6,-11.9,-1.64,21.81,0.7
1.57,-17.4,342.5,-3.9,-1.47,21.94,0.92
1.572,-13.2,347.1,-4.7,-1.61,21.71,0.95
1.574,-10.2,360.3,-0.7,-1.47,21.71,0.86
1.576,-21.9,328,7.4,-1.56,21.73,0.94
1.578,-19.8,339.8,-6.4,-1.63,21.58,0.95
1.58,-20.7,344.7,-10.3,-1.62,21.72,0.99
1.582,-14.8,335.6,-8.2,-1.61,21.59,0.81
1.584,-18.8,347.5,1.5,-1.53,21.67,0.9
1.586,-32.6,321.3,-3,-1.63,21.68,0.78
1.588,-27.7,336.7,-8.5,-1.65,21.56,0.82
1.59,-30.5,346.4,0.6,-1.68,21.56,0.8
1.592,-10.6,336.4,-3.8,-1.69,21.65,0.73
1.594,-24.4,332.5,-13.1,-1.8,21.57,0.78
1.596,-25.5,343.2,6.8,-1.51,21.8,0.81
1.598,-26,330,3.4,-1.64,21.67,0.71
1.6,-19.3,341.5,-2.3,-1.67,21.56,0.74
1.602,-24,329.7,2,-1.56,21.58,0.74
1.604,-19.9,327.3,4.8,-1.53,21.74,0.75
1.606,-6.9,337.3,-4.2,-1.51,21.45,0.46
1.608,-19.6,339.5,-11.2,-1.57,21.59,0.87
1.61,-23.6,330.6,5.1,-1.52,21.58,0.82
1.612,-32.8,325,0,-1.42,21.62,0.67
1.614,-30.4,330.3,-0.5,-1.45,21.5,0.92
1.616,-32.1,319.6,1.2,-1.45,21.6,0.72
1.618,-23.4,325.2,5,-1.5,21.51,0.42
1.62,-26,316.5,-7.3,-1.43,21.5,0.8
1.622,-28.4,310.6,-11.5,-1.55,21.56,0.71
1.624,-37.9,318.5,-5.6,-1.56,21.47,0.67
1.626,-17.9,331.1,0.1,-1.72,21.51,0.76
1.628,-19.5,308.2,0.6,-1.64,21.35,0.39
1.63,-36.8,303.9,-1.4,-1.81,21.37,0.65
1.632,-42.2,315.6,-18.1,-1.71,21.31,0.55
1.634,-14.5,320,-6.2,-1.81,21.31,0.55
1.636,-9.5,322,1.8,-1.64,21.44,0.48
1.638,-20,319.8,2.5,-1.65,21.34,0.19
1.64,-15.9,297.5,-1.8,-1.71,21.27,0.59
1.642,-22.6,299.7,2.5,-1.59,21.24,0.33
1.644,-10,308.4,9.4,-1.42,21.24,0.27
1.646,-8.1,302,-5.6,-1.59,21.2,0.23
1.648,-20.4,305.6,-8.3,-1.54,21.39,0.31
1.65,-21.5,304.8,2,-1.42,21.15,-0.13
1.652,-17.2,295.6,-1.2,-1.66,21.26,0.21
1.654,-11.4,285.3,2.5,-1.32,21.39,0.23
1.656,-24.9,295.4,-1.6,-1.4,21.33,0.28
1.658,-16,283.2,6.7,-1.44,21.04,0.06
1.66,-30.5,277,-6.1,-1.12,21.29,0.44
1.662,-28.9,278.2,-3.5,-1.59,21.11,0.3
1.664,-21.7,280.9,-2.8,-1.39,21.22,0.42
1.666,-17.6,271.8,0,-1.46,21.34,0.58
1.668,-37.7,272.5,-2.7,-1.58,21.19,0.51
1.67,-21.6,275.2,2.1,-1.37,21.31,0.2
1.672,-19.8,263.6,1.4,-1.45,21.14,0.41
1.674,-14.4,278.3,-4.7,-1.77,21.04,0.46
1.676,-10.4,266.6,1.8,-1.42,21.18,0.47
1.678,-26.9,249.3,0.4,-1.49,21.06,0.34
1.68,-20.5,280.1,2,-1.45,21.19,0.51
1.682,-8.3,264.5,1.3,-1.35,21.09,0.32
1.684,-16.6,254.2,-1.9,-1.57,21.11,0.25
1.686,-19.5,266.6,2,-1.67,21.11,-0.02
1.688,-13.7,256.7,-1.6,-1.72,21.02,0.45
1.69,-6.9,245.7,0,-1.56,21.14,0.32
1.692,-12.9,261.6,-3.3,-1.47,20.88,0.02
1.694,-16.3,255.1,-2,-1.59,21.16,0.24
1.696,-21.4,231.6,0.6,-1.56,20.81,0.08
1.698,-5.5,265.9,2.9,-1.45,21.06,0.08
1.7,-13,255.7,4.2,-1.58,20.93,0.24
1.702,-14.2,236.3,5.1,-1.12,21.27,0.1
1.704,-14.7,246.7,-5.1,-1.49,20.94,0.21
1.706,-11.8,241.8,-4.1,-1.57,20.85,0.12
1.708,-6.5,242.2,4.9,-1.39,21.07,0.69
1.71,-17.4,240.4,-2.8,-1.37,20.85,0.3
1.712,-6.4,235.2,0.4,-1.54,20.93,0.6
1.714,3.2,223.2,9,-1.46,20.84,0.52
1.716,-14.4,238.4,8.4,-1.64,21.02,0.46
1.718,-9.4,238,-4,-1.66,20.52,0.44
1.72,-9,225.6,1,-1.63,20.75,0.59
1.722,-0.9,237.3,4.3,-1.52,20.76,0.49
1.724,2.8,228.6,5.6,-1.6,20.79,0.71
1.726,-9.9,219.4,7.1,-1.7,20.64,0.67
1.728,11.3,238.9,16.2,-1.63,20.5,0.2
1.73,3.3,224.9,9.8,-1.52,20.61,0.66
1.732,6.5,220.9,2,-1.62,20.51,0.59
1.734,-5.3,225.2,9.6,-1.47,20.61,0.42
1.736,-13.4,232.1,6,-1.52,20.47,0.67
1.738,13.6,215.2,7.8,-1.38,20.58,0.46
1.74,-5.1,208.4,5.2,-1.4,20.42,0.32
1.742,-3,210.2,7.6,-1.38,20.58,0.45
1.744,-6.3,206.5,3.7,-1.51,20.4,0.5
1.746,-17.8,213.7,3.4,-1.56,20.48,0.48
1.748,-2.7,208.1,4.3,-1.59,20.31,0.48
1.75,-15,206.9,8.5,-1.52,20.4,0.33
1.752,2.1,216.2,5.7,-1.53,20.27,0.4
1.754,8.6,216,16.2,-1.59,20.34,0.73
1.756,-1.8,203.4,4.8,-1.41,20.43,0.63
1.758,-17.1,220,0.4,-1.69,20.16,0.4
1.76,-0.9,200.4,10.5,-1.67,20.37,0.71
1.762,-15.1,197,6.8,-1.72,20.2,0.53
1.764,-12.2,210.2,5.5,-1.81,20.29,0.63
1.766,7.2,187.2,9,-1.91,20.28,0.53
1.768,-5.2,190.8,16.2,-2.01,20.29,0.88
1.77,7.7,211.7,13.6,-1.71,20.28,0.51
1.772,-6.7,205.4,4.3,-1.72,20.29,0.64
1.774,-14.2,202.7,0,-1.9,20.21,0.82
1.776,-14.4,202.5,5.8,-1.76,20.3,0.62
1.778,-7.5,200.9,-1.5,-1.83,20.15,0.66
1.78,-21.9,189,-4,-1.77,20.29,0.71
1.782,-19.7,208.9,3.9,-1.93,20.05,0.7
1.784,-7.4,198.6,-3.7,-1.91,20.18,0.74
1.786,-4.8,204.3,7.7,-1.84,20.2,0.85
1.788,-13.2,209.3,3.4,-2.06,20.15,0.76
1.79,-35.2,198.1,-1.5,-1.84,20.28,0.86
1.792,-15.3,193.3,6,-1.84,20.05,0.69
1.794,-3,211.3,3.4,-1.79,20.13,0.75
1.796,14.9,215.3,10.4,-1.94,20.3,0.97
1.798,6.7,212.2,4,-1.98,20.2,0.81
1.8,-5.5,199,6.3,-1.84,20.45,0.83
1.802,-16.3,194.9,4.8,-1.98,20.15,0.64
1.804,-23,198,-3.4,-1.8,20.21,0.64
1.806,4.8,212.8,5.8,-1.98,20.04,0.77
1.808,6.7,199.1,13,-1.85,20.2,0.72
1.81,-4.1,200.7,1.1,-1.7,20.05,0.47
1.812,-0.6,196.4,4.4,-1.67,20.23,0.72
1.814,-11.2,199.2,-2.5,-1.74,20.04,0.56
1.816,-5.3,200.1,0.9,-1.55,20.34,0.77
1.818,-6.1,200.7,5,-1.87,20.36,0.69
1.82,-3.2,206.3,2.9,-1.64,20.29,0.58
1.822,-15.6,206.4,4.2,-1.59,20.38,0.75
1.824,-5,197.7,0.6,-1.67,20.18,0.48
1.826,-25.6,198.2,1.8,-1.41,20.35,0.66
1.828,4.4,208.8,8.3,-1.6,20.29,0.51
1.83,-3.1,192,7.8,-1.57,20.2,0.56
1.832,-18.8,201,-10.7,-1.28,20.36,0.56
1.834,-22.4,191,-5.3,-1.86,20.15,0.64
1.836,-22.9,177.1,-6.5,-1.48,20.38,0.56
1.838,-10.5,203.4,5.6,-1.48,20.35,0.55
1.84,-10.7,198.1,-0.7,-1.81,20.18,0.4
1.842,-23,169.8,-2.8,-1.43,20.34,0.6
1.844,-26.7,190.1,-0.8,-1.72,20.22,0.2
1.846,1.5,193.9,2.2,-1.58,20.3,0.36
1.848,9.5,185.5,5.1,-1.7,20.27,0.5
1.85,0.9,201.4,1.6,-1.74,20.26,0.05
1.852,-3.9,206.5,7.8,-1.6,20.26,0.39
1.854,-24.4,179.5,0.1,-1.85,20.22,0.32
1.856,-1.4,186.4,4.1,-1.82,20.24,0.03
1.858,-14.7,187.9,-1.5,-1.83,20.32,0.15
1.86,-4.3,169,5.5,-1.64,20.33,0.42
1.862,-13.5,175.7,-1,-1.74,20.05,0.2
1.864,-9.8,194.8,-2.8,-1.78,20.16,0.62
1.866,-4.2,172.7,-1.2,-1.75,20.21,0.68
1.868,-9.5,167.8,0.1,-1.75,20.29,0.35
1.87,-14.9,185.2,-3.5,-1.77,20.16,0.41
1.872,-6.7,154.2,2,-1.71,20.29,0.46
1.874,0.9,179.3,-5.7,-1.63,20.22,0.5
1.876,-5.2,160.2,0.7,-1.68,20.22,0.36
1.878,-6.7,160.3,0.8,-1.55,20.26,0.43
1.88,-20.9,168,-13.2,-1.7,20.11,0.61
1.882,-3.7,152.5,4.8,-1.56,20.13,0.25
1.884,-8.7,147.2,3.8,-1.63,20.16,0.42
1.886,-11.6,174.3,-1,-1.76,20.15,0.44
1.888,-18.3,147.4,-4.4,-1.57,20.19,0.4
1.89,-14.2,161.5,0,-1.95,20.17,0.53
1.892,-0.9,168,1.7,-1.76,20.21,0.42
1.894,4.2,165.7,-2.1,-1.87,20.23,0.48
1.896,3.9,139.4,1.8,-1.67,20.27,0.28
1.898,-15.5,132.8,4.5,-1.73,20.29,0.57
1.9,-1.7,161.8,8.9,-1.72,20.26,0.45
1.902,-0.9,161.2,0.4,-1.78,20.3,0.59
1.904,22.1,177.7,2.8,-1.71,20.24,0.54
1.906,0.5,152.8,-1.2,-1.81,20.21,0.37
1.908,-17.6,146.6,0.5,-1.88,20.18,0.55
1.91,0.8,144.2,13.8,-1.65,20.32,0.41
1.912,-26.8,138.2,-9,-1.77,20.09,0.72
1.914,8.3,143.3,7.6,-1.71,20.38,0.65
1.916,-9.5,138.1,3.4,-1.62,20.32,0.95
1.918,4,158.6,5.3,-1.55,20.37,0.68
1.92,-12.5,149.3,5.8,-1.76,20.38,0.89
1.922,-2.3,137.6,6.7,-1.66,20.29,0.73
1.924,6.7,133.2,0.7,-1.66,20.35,0.65
1.926,-12.7,150.9,-4,-1.79,20.18,0.78
1.928,-4.8,145.7,13.3,-1.72,20.49,0.47
1.93,-2.1,134.1,5,-1.98,20.16,0.5
1.932,2.1,151.6,-4.8,-1.95,20.22,0.5
1.934,5.7,153.7,-0.7,-1.81,20.31,0.52
1.936,-17.4,125,8.6,-2.01,20.26,0.58
1.938,-18.5,140.3,-7.8,-1.84,20.2,0.42
1.94,9.8,140.7,0.2,-2.03,20.32,0.47
1.942,4.9,141.8,4.7,-1.95,20.37,0.41
1.944,-1.6,120.1,3.9,-2.03,20.31,0.67
1.946,-12.4,111.2,6.8,-1.93,20.39,0.53
1.948,-2.5,135.8,5.7,-1.91,20.44,0.58
1.95,12.3,130.7,11.1,-2,20.3,0.67
1.952,-6.2,127.5,1.5,-1.91,20.29,0.55
1.954,-10.4,124.2,-6.6,-1.94,20.3,0.65
1.956,-5.3,137.2,2.2,-2.07,20.34,0.67
1.958,-9.3,116.3,-7.5,-1.96,20.36,0.74
1.96,-13.2,119.9,-4.7,-1.98,20.33,0.74
1.962,4.8,124.1,9.7,-2.03,20.27,0.82
1.964,-4.5,107.6,-9.6,-1.9,20.25,0.88
1.966,4.4,116.9,-5.8,-2.01,20.34,0.75
1.968,-13.6,113.8,-12.8,-2.08,20.21,0.79
1.97,-1.3,103.4,-3.7,-2,20.35,0.75
1.972,1.6,103.4,0,-2.2,20.11,0.81
1.974,-3.5,141.6,2.9,-2,20.22,0.78
1.976,0,120.6,0,-2.1,20.18,0.65
1.978,20.8,115.4,-2.6,-1.99,20.17,0.98
1.98,6.2,105.6,0,-2.12,20.14,0.8
1.982,-3.9,105.7,2,-1.91,20.2,0.95
1.984,-1,86.2,-3,-1.98,20.27,1
1.986,-19.1,94.3,-5.8,-1.95,20.07,0.79
1.988,-3.1,95.6,4.5,-1.84,20.02,0.75
1.99,15.3,100.7,4.8,-1.96,20.03,0.87
1.992,-11.8,78.1,-0.1,-1.88,19.93,0.76
1.994,4.2,84.3,-5.1,-1.96,19.79,0.8
1.996,10.7,89.5,0.1,-1.84,19.85,0.69
1.998,-9.9,118.6,-9.3,-1.92,19.74,0.86
2,4.6,117.1,-4.2,-1.9,19.61,0.48
2.002,18.2,80.2,2.2,-1.74,19.65,0.81
2.004,7.5,92.4,-7.8,-1.87,19.55,0.79
2.006,1.2,80.5,5.6,-1.86,19.46,0.68
2.008,-15.3,62,6.7,-1.74,19.44,0.77
2.01,-26,95.2,-24.4,-1.79,19.24,0.62
2.012,-10.2,71.4,-9.4,-1.88,19,0.57
2.014,11.5,70.8,-0.2,-1.83,19.06,0.74
2.016,-7.5,91.2,-11.7,-1.81,18.96,0.84
2.018,-0.6,85.7,6.8,-1.78,18.68,0.34
2.02,-20.1,76.5,6,-1.76,18.77,0.6
2.022,-1.9,75.6,-1.6,-1.77,18.5,0.58
2.024,0.4,85.9,-6.5,-1.72,18.45,0.78
2.026,0.9,54.5,0.2,-1.74,18.22,0.62
2.028,-11.2,73,-5.3,-1.69,18.35,0.77
2.03,3.7,70.7,-4.7,-1.72,18.17,0.69
2.032,0.4,59.6,2.7,-1.77,17.95,0.6
2.034,4.2,84.4,3.9,-1.62,17.82,0.64
2.036,-13.2,63.6,-4.9,-1.68,17.77,0.74
2.038,3.7,66.4,1.4,-1.67,17.55,0.85
2.04,-20.4,81.7,4.4,-1.6,17.53,0.84
2.042,1,73,-0.6,-1.53,17.37,0.78
2.044,3.1,43.1,-5.8,-1.58,17.25,0.66
2.046,3.9,57,0.6,-1.63,17.14,0.82
2.048,-20.1,59.5,-5.2,-1.66,17.03,0.85
2.05,-14.8,45.9,-9.2,-1.62,16.88,0.77
2.052,20.3,65.4,4.5,-1.69,16.8,0.86
2.054,20.8,67.5,-3.2,-1.65,16.64,0.72
2.056,-21.4,32,-13.6,-1.65,16.54,0.56
2.058,-3.9,30.3,-8.6,-1.66,16.32,0.65
2.06,-11.2,40.1,15,-1.62,16.18,0.56
2.062,-10.7,30.7,-4.9,-1.69,16.09,0.71
2.064,-24,32.6,-9.3,-1.7,15.93,0.79
2.066,5.8,50.4,-1.1,-1.59,15.96,0.72
2.068,-2.3,42.2,-0.6,-1.67,15.84,0.7
2.07,-20.4,49,-11,-1.71,15.66,0.63
2.072,12.9,19.1,11.6,-1.68,15.57,0.53
2.074,-17.5,32.1,3.4,-1.62,15.43,0.71
2.076,-16.5,16.8,-2.2,-1.59,15.35,0.35
2.078,-8.3,48.6,0.3,-1.56,15.31,0.68
2.08,4.4,20.5,7.9,-1.68,15.21,0.57
2.082,-15.6,1.7,-9,-1.73,14.88,0.58
2.084,-26.7,29.2,-2.6,-1.71,14.84,0.5
2.086,-23,18.6,17,-1.69,14.6,0.54
2.088,-13.1,-5.2,9,-1.69,14.91,0.61
2.09,-13.8,25.6,0,-1.66,14.51,0.49
2.092,-25.5,9.9,-0.2,-1.57,14.52,0.66
2.094,-5,8.5,5.6,-1.58,14.58,0.72
2.096,0.6,38,-5.1,-1.57,14.27,0.76
2.098,-0.5,12.6,-6.9,-1.5,14.14,0.76
2.1,-4.3,-1.1,2.7,-1.57,14.06,0.77
2.102,-0.4,-17.4,4.1,-1.54,14.02,0.71
2.104,-31.9,-23.1,-5.1,-1.53,13.91,0.69
2.106,-5.2,-0.6,8.2,-1.5,13.72,0.83
2.108,12.3,12.3,0.1,-1.48,13.73,0.79
2.11,-18.1,5.1,-10.6,-1.47,13.56,0.68
2.112,-13.9,0.4,5.4,-1.42,13.43,0.77
2.114,-12.6,7,-3.6,-1.45,13.48,0.71
2.116,-9.8,4.3,-3.7,-1.56,13.07,0.69
2.118,-18.9,4.2,2.2,-1.57,13.15,0.82
2.12,-5.5,-0.5,13,-1.44,12.88,0.87
2.122,-22.4,1.6,-5.9,-1.98,14.48,1.37
2.124,14.2,-24.2,-8.2,-1.01,10.95,0.75
2.126,19,-10.5,11,-1.43,13.84,1.03
2.128,-0.6,-15.8,-3.5,-1.38,11.89,0.73
2.13,-19.9,-0.7,5.7,-1.4,12.84,0.46
2.132,-8.4,-13,8.9,-1.35,12.5,0.4
2.134,18.7,-29.8,17.2,-1.48,12.6,1.01
2.136,16.2,-39.1,-8.4,-1.28,12.45,0.8
2.138,-17,7.8,6.6,-1.57,12.02,0.76
2.14,-18.5,-31.7,-1.6,-1.77,12.11,0.94
2.142,-20.2,-39.4,-14.9,-1.34,11.71,0.77
2.144,27.5,-8.7,8.1,-1.25,11.93,0.49
2.146,-0.4,-18.3,10.6,-1.63,11.53,0.9
2.148,-5.2,-23.7,1,-1.45,11.68,0.95
2.15,5.3,-19.2,21.6,-1.48,11.6,0.83
2.152,-8.4,-34.2,10.7,-1.5,11.33,0.89
2.154,8.2,-26.8,5.2,-1.46,11.49,1.02
2.156,-15.6,-35.7,-3.4,-1.54,11.24,0.96
2.158,-9.3,-15.5,10.6,-1.51,11.24,0.95
2.16,-7.9,-30.5,14.4,-1.55,10.71,0.8
2.162,-12.1,-47.8,0,-1.46,10.8,0.74
2.164,1.8,-27.6,11.6,-1.49,10.63,0.76
2.166,21.9,-22.1,3.2,-1.54,10.53,0.99
2.168,12.9,-31,5.9,-1.53,10.51,0.96
2.17,-2.1,-40.3,-0.9,-1.51,10.48,1.02
2.172,9.8,-48.2,12.5,-1.55,10.5,0.98
2.174,10.5,-9,12.7,-1.55,10.17,0.78
2.176,34.1,-36.4,11.3,-1.54,9.96,0.78
2.178,-1.6,-51.3,2.6,-1.51,9.95,0.93
2.18,-8.7,-49.3,9.6,-1.48,10.09,0.93
2.182,-20.8,-76.3,0.7,-1.58,9.85,0.99
2.184,-11.5,-71.9,-6.8,-1.54,9.82,1
2.186,37.8,-24.4,20.4,-1.43,9.79,1.03
2.188,18.6,-4.9,0.5,-1.56,9.5,0.94
2.19,29,-27.1,10.6,-1.44,9.62,0.91
2.192,7,-9,7.6,-1.49,9.37,0.87
2.194,51.7,-25.6,21.7,-1.44,9.39,0.78
2.196,23.4,-69.2,11.9,-1.46,9.31,0.89
2.198,12.3,-70.1,-0.7,-1.49,9.1,1.02
2.2,-6.2,-71.9,2.9,-1.49,9.42,1.08
2.202,-21.7,-95.5,10,-1.55,9.18,0.88
2.204,1.7,-70.9,-5.6,-1.45,9.14,0.9
2.206,23.1,-51.2,2.5,-1.5,9.06,1.19
2.208,-2.6,-58.8,5.6,-1.5,8.96,1.05
2.21,8,-62.4,14.4,-1.49,8.85,1.12
2.212,5,-76.7,10.1,-1.43,9.06,1.22
2.214,1.8,-60.7,5.9,-1.44,8.86,1.2
2.216,-14.2,-71,6.3,-1.46,8.84,1.17
2.218,-9.7,-66.9,-3.8,-1.55,8.61,1.15
2.22,-9.1,-61.1,7.4,-1.46,8.65,1.11
2.222,-26.9,-76.5,11.2,-1.5,8.64,1.24
2.224,-0.2,-61.5,11.8,-1.47,8.5,1.31
2.226,31.7,-66.6,8.9,-1.47,8.44,1.13
2.228,7.3,-50.5,3.8,-1.56,8.55,1.39
2.23,4.2,-59,4.1,-1.47,8.61,1.24
2.232,24.6,-60.7,0.5,-1.51,8.53,1.39
2.234,26.6,-40.6,28.2,-1.54,8.48,1.15
2.236,4.9,-56.7,13.1,-1.58,8.37,1.07
2.238,-12.7,-73.2,1.2,-1.48,8.61,1.33
2.24,8.4,-55,5,-1.6,8.35,1.26
2.242,-16.2,-51.6,1.3,-1.6,8.43,1.22
2.244,7.3,-62.5,12.4,-1.54,8.29,1.37
2.246,14.3,-86.3,7.4,-1.51,8.37,1.36
2.248,15.3,-65.4,10.1,-1.58,8.32,1.3
2.25,-10.4,-88.6,8.3,-1.63,8.33,1.23
2.252,11,-79.5,0.6,-1.54,8.36,1.34
2.254,-5.6,-60.9,6.7,-1.58,8.39,1.32
2.256,0,-69.8,-1.2,-1.63,8.41,1.41
2.258,7,-87.4,-3.5,-1.46,8.33,0.96
2.26,12.4,-50.1,-7.7,-1.46,8.29,1.31
2.262,6.3,-70.6,14,-1.13,8.64,0.89
2.264,-3.2,-98.4,-2.5,-0.51,8,0.69
2.266,-6.9,-94.9,2.2,-2.18,8.57,1.73
2.268,11.9,-79.6,10.4,-0.73,8.6,1.26
2.27,27.7,-84.4,0.6,-1.82,8.47,1.38
2.272,-12.7,-85.8,-7.9,-1.48,8.6,1.24
2.274,29,-52.7,22,-1.16,8.35,0.77
2.276,-23.4,-121.4,-0.6,0.2,9.28,-0.57
2.278,5,-78.2,5.9,-1.44,9.01,2.49
2.28,32.5,-42.1,19.4,-1.28,8.71,0.82
2.282,11.4,-91.9,4.4,-1.48,8.05,1.44
2.284,20.9,-74,14,-2.09,8.45,1.72
2.286,-2,-80.5,13.6,-1.07,8.56,0.8
2.288,1.8,-82.1,23.1,-1.43,8.54,1.23
2.29,2.1,-103.5,1.7,-1.18,8.23,1.19
2.292,-9.7,-86.2,17,-1.79,8.31,1.52
2.294,-27.8,-121,22.1,-1.71,8.33,1.62
2.296,-15.6,-92.1,8,-1.99,8.02,1.63
2.298,3.5,-81.1,7.6,-2.14,8.33,1.56
2.3,10.4,-121.4,13.7,-2.03,8.46,1.75
2.302,9.1,-113.8,17.6,-1.86,8.43,1.67
2.304,43.8,-63.4,12.7,-2.02,8.27,1.61
2.306,-11.8,-97.5,30.2,-1.96,8.32,1.66
2.308,1.7,-87.5,21.6,-2.06,8.32,1.84
2.31,-10.3,-104.6,3.3,-2.17,8.37,1.72
2.312,-4.5,-110.7,13.2,-2.19,8.23,1.68
2.314,28.9,-76.2,23.8,-2.32,8.18,1.73
2.316,45.5,-77.5,18.1,-2.17,8.36,1.75
2.318,-20.2,-140.9,0.4,-2.27,8.37,1.59
2.32,3,-99.6,20.7,-2.19,8.4,1.5
2.322,-16.2,-129,25.3,-2.27,8.45,1.66
2.324,-10.1,-107.3,-2.9,-2.07,8.53,1.64
2.326,23.7,-109.8,14.5,-2.23,8.42,1.73
2.328,-9.7,-100,16.3,-2.28,8.23,1.42
2.33,42.2,-104.5,15.5,-2.21,8.38,1.69
2.332,19.3,-96.4,15.3,-2.16,8.34,1.35
2.334,23.8,-72.4,25.1,-2.14,8.42,1.31
2.336,17.8,-146.4,35.2,-2.21,8.41,1.47
2.338,11.1,-132.2,13.1,-2.17,8.37,1.41
2.34,-15.7,-106.4,11,-2.15,8.51,1.59
2.342,-3.7,-108.7,28.7,-2.21,8.52,1.45
2.344,-20.1,-131.9,24.2,-2.2,8.39,1.51
2.346,21.5,-108.2,5.6,-2.27,8.55,1.61
2.348,20.6,-90.8,11.4,-2.24,8.35,1.66
2.35,28.3,-115.5,18.6,-2.23,8.46,1.67
2.352,14.9,-93.5,18,-2.3,8.45,1.93
2.354,7.5,-114.5,9.1,-2.34,8.31,1.79
2.356,11.5,-115.3,26.3,-2.39,8.37,2.02
2.358,-2.3,-102.1,33.5,-2.42,8.24,1.87
2.36,-5.8,-98.7,11.8,-2.52,8.15,1.92
2.362,-20.4,-140,14.9,-2.61,8.16,2.11
2.364,11.4,-104.8,22.6,-2.61,8.15,2.21
2.366,8.6,-102.6,9.1,-2.76,8.06,2.31
2.368,40.2,-116.1,16.5,-2.77,7.94,2.34
2.37,1.1,-104.2,15.5,-2.91,7.75,2.21
2.372,-28.7,-100.3,23.2,-2.99,7.88,2.29
2.374,22.8,-96.2,0.6,-2.97,7.69,2.26
2.376,16.3,-106.8,6.7,-3.12,7.65,2.44
2.378,14.4,-83.7,22.3,-3.05,7.27,2.3
2.38,48.1,-82.1,24.4,-3.22,7.44,2.42
2.382,21.6,-101.7,11.1,-3.12,7.33,2.33
2.384,24.6,-91.6,27.4,-3.05,7.15,2.39
2.386,11.9,-95.2,5.5,-3.33,7.13,2.2
2.388,0.9,-118.6,13.3,-3.27,6.97,2.32
2.39,15.2,-69.9,13.1,-3.32,7.05,2.56
2.392,35,-66.7,30.5,-3.32,6.9,2.19
2.394,6.4,-116,24.2,-3.4,6.49,2.56
2.396,4.2,-102.3,-1.5,-3.34,6.75,2.2
2.398,24.5,-93.1,29.4,-3.3,6.38,2.3
2.4,39,-80.9,9,-3.34,6.32,2
2.402,5.4,-85.8,13.4,-3.35,6.23,2.23
2.404,-15.6,-78.3,8.7,-3.38,6.14,2.07
2.406,-9,-100,17.4,-3.06,6.04,1.96
2.408,24,-91.1,20.5,-3.35,6.04,2.25
2.41,55.7,-77.6,17.3,-3.36,5.95,2.17
2.412,59.2,-70.1,18.3,-3.21,5.73,2.11
2.414,9.5,-65.4,14.9,-3.27,5.6,2.11
2.416,20.3,-63.1,2.7,-3.32,5.56,2.08
2.418,10.2,-96,30.4,-3.43,5.62,2
2.42,-36.4,-86.8,23.5,-3.31,5.7,2.3
2.422,-0.7,-64.8,19,-3.32,5.49,2.27
2.424,7.5,-104.2,4.1,-3.41,5.37,2.25
2.426,4.9,-57.5,11.5,-3.18,5.56,2.24
2.428,-3.3,-74.5,2.5,-3.4,5.15,2.42
2.43,23.5,-81,3.6,-3.25,5.13,2.24
2.432,34.4,-31.5,19.9,-3.4,5.06,2.27
2.434,17.6,-56.9,21.9,-3.39,4.91,2.2
2.436,8.3,-61.8,14.3,-3.43,5.05,2.24
2.438,-15.3,-60.1,1.3,-3.43,4.91,2.31
2.44,-19,-75.6,9.4,-3.57,4.67,2.32
2.442,16.6,-96.9,15.9,-3.4,4.5,2.19
2.444,-2.9,-87.4,-1.6,-3.44,4.41,2.17
2.446,-2,-53.4,21.4,-3.52,4.45,1.95
2.448,35.3,-40.9,28.6,-3.57,4.46,2.15
2.45,-12.2,-69.5,-6.2,-3.5,4.42,2.13
2.452,-43.6,-69.4,4.6,-3.55,4.16,1.92
2.454,-34.7,-90.5,2.9,-3.67,4.27,1.99
2.456,-0.9,-34,-4,-3.73,4.18,1.94
2.458,-4.2,-46.2,18.7,-3.66,4.17,1.91
2.46,-3.3,-65,34.9,-3.66,3.95,1.93
2.462,-36.7,-52.7,-0.4,-3.75,4.03,1.61
2.464,-17.9,-63.3,-0.4,-3.6,4.01,1.92
2.466,-11.6,-70.9,2.9,-3.77,3.95,1.62
2.468,-9.7,-55.5,2.2,-3.72,3.92,1.66
2.47,4.6,-76.6,-0.9,-3.74,3.75,1.69
2.472,12.1,-44,32.8,-3.65,3.75,1.74
2.474,68.8,-31.7,33.3,-3.62,3.76,1.55
2.476,23.1,-74.8,7.6,-3.52,3.88,1.76
2.478,27.2,-79.3,6.3,-3.49,3.6,1.67
2.48,-0.7,-60,-3.8,-3.48,3.71,1.96
2.482,-16.6,-55,-10.7,-3.4,3.59,2.02
2.484,22.8,-60.1,-6.4,-3.33,3.6,1.8
2.486,19.2,-41.3,32.5,-3.36,3.47,1.98
2.488,21.2,-41.6,13.2,-3.36,3.37,1.81
2.49,22.8,-69.1,-13.3,-3.39,3.37,1.95
2.492,-36.5,-93.5,-3.6,-3.28,3.43,1.8
2.494,-12.3,-72.3,9.2,-3.36,3.24,1.74
2.496,-6.7,-75.7,-15.3,-3.26,3.24,2.03
2.498,13.4,-40.8,-16,-3.23,3.24,1.93
2.5,-1.3,-45.1,13.7,-3.5,3.11,1.95
2.502,-17.1,-94,24.7,-3.37,3.23,1.59
2.504,-28.8,-85.4,-12.8,-3.51,3.13,1.6
2.506,-9.7,-64,-1.2,-3.41,3.01,1.81
2.508,0.6,-80.2,-24.1,-3.16,2.85,1.65
2.51,6.8,-56.5,-1.9,-3.55,2.9,1.75
2.512,28.5,-36.1,37.8,-3.21,2.77,1.77
2.514,-2.5,-88,19.1,-3.47,2.6,1.55
2.516,4.4,-61.8,15.1,-3.36,2.56,1.66
2.518,-4.4,-105,-12.1,-3.28,2.42,1.67
2.52,-30.9,-70.9,-6.8,-3.38,2.61,1.87
2.522,11.9,-61.2,11.7,-3.34,2.3,1.65
2.524,28.7,-68.3,-2.1,-3.29,2.3,1.75
2.526,20.5,-110.5,16.8,-3.12,2.23,1.74
2.528,-3.7,-43.7,10.3,-3.2,2.18,1.7
2.53,-14.1,-95.6,0,-3.15,2.27,1.97
2.532,-9.7,-114,-17.7,-2.97,1.79,1.86
2.534,22.6,-58.5,-5.4,-3.11,1.93,2.2
2.536,18.8,-58,13.2,-3.01,1.8,2.03
2.538,1.9,-87.5,-1.7,-3.13,1.83,2.36
2.54,21,-57.7,7.8,-3.08,1.73,2.08
2.542,28.5,-97,18.7,-2.98,1.38,2
2.544,0.4,-63.7,10.6,-3.13,1.64,1.95
2.546,-2.4,-72,-2.2,-3.08,1.38,1.98
2.548,6.3,-63.9,16.2,-3.02,1.33,1.89
2.55,19,-58.5,-8.1,-3.18,1.22,2.07
2.552,33.2,-58,2.7,-3.08,1.23,2.14
2.554,26.3,-86.2,7.2,-3.08,1.13,1.69
2.556,23.3,-77.1,18.1,-3.21,1.1,1.86
2.558,1,-30.2,5.5,-3,1.12,1.81
2.56,-5.4,-59.9,1.8,-3.1,0.93,2.11
2.562,-5.1,-51.8,6.1,-2.92,1.15,1.89
2.564,-8.1,-47.1,3.1,-2.99,0.71,2.17
2.566,-9,-74,5.5,-3.03,0.96,1.88
2.568,7.4,-56,11.3,-3.07,0.81,2.03
2.57,20.5,-50.6,-7.3,-3.1,0.75,1.96
2.572,-8.1,-93.8,3.5,-2.95,0.59,2.04
2.574,-23.6,-86.5,0.8,-3.15,0.48,1.94
2.576,-45.9,-35.7,-1.4,-2.94,0.69,1.78
2.578,26,-84.1,9.4,-2.94,0.72,2.05
2.58,5.2,-83.4,11.2,-2.94,0.53,1.98
2.582,8.8,-48.8,-4.5,-3.24,0.6,2.37
2.584,-9.3,-90.8,-3.5,-2.93,0.63,2.1
2.586,-27,-56.1,-2.3,-3.04,0.56,2.18
2.588,-4.8,-56.5,13,-2.87,0.5,2.08
2.59,17.4,-71.7,6,-2.95,0.37,2.19
2.592,-6.7,-46.4,5.8,-2.95,0.41,2.1
2.594,-44.7,-66.5,4,-3.02,0.36,2.1
2.596,16.1,-60.8,18.7,-3.09,0.35,1.98
2.598,20.9,-43.6,-6.1,-3.08,0.31,2.11
2.6,10.3,-41.6,-1.5,-2.98,0.4,1.74
2.602,-11.5,-57.1,8.3,-3.2,0.23,2.28
2.604,-19.4,-66.9,-8.2,-3,0.27,1.79
2.606,-5.3,-18.4,28,-3.09,0.08,2.11
2.608,6.3,-69.5,17.7,-3.13,0,1.85
2.61,-15.8,-46.7,23.1,-3.13,-0.12,1.94
2.612,-37.2,-32,-7.6,-3.16,0,2.17
2.614,-20.8,-65.8,-8.5,-3.1,0.15,1.76
2.616,-17.4,-76.5,-5.9,-2.94,-0.05,1.88
2.618,22.9,37.7,3.1,-3.15,-0.23,1.82
2.62,24.7,-13.8,10.9,-3.04,-0.32,2.01
2.622,-27.7,-21.1,1.5,-3.15,0,1.99
2.624,10.9,-8.1,12.6,-3.26,-0.25,1.95
2.626,10.9,-38.8,15,-3.21,-0.24,2.05
2.628,11.4,-22.3,22.4,-3.12,-0.39,1.92
2.63,-0.2,-16.2,-2.7,-3.18,-0.33,1.9
2.632,-21.7,-53,1,-3.13,-0.22,2.05
2.634,-15.8,-46.1,15.9,-3.09,-0.34,1.73
2.636,-8.8,-5.7,11,-3.11,-0.5,2
2.638,8.2,-66.1,-5.7,-3.02,-0.48,1.85
2.64,-3.4,-51.3,-4.9,-3.1,-0.73,2.02
2.642,-29,-46.7,1,-3.12,-0.43,1.86
2.644,-5.3,-57.3,0.3,-3.02,-0.71,2.16
2.646,18.6,-49,-2.1,-3.16,-0.75,1.88
2.648,-26.8,-58,-5.7,-3.15,-0.71,1.89
2.65,-17.2,-52,12.8,-2.97,-0.91,1.99
2.652,-11.8,-34.1,7.7,-3.02,-0.85,1.94
2.654,-27.9,-27.7,-6.6,-3.19,-1.11,1.76
2.656,12.3,-33.4,20.2,-3.12,-1.1,1.76
2.658,20.7,-74.9,17,-3.14,-1.26,2.11
2.66,-11.8,-28.9,14.7,-2.99,-1.18,1.9
2.662,16.1,-28.9,9.8,-2.98,-1.31,1.86
2.664,34,-23,6,-3.09,-1.37,1.85
2.666,4.1,-18.8,-5.5,-2.96,-1.53,1.9
2.668,21.6,-45.3,-9.4,-2.94,-1.52,1.79
2.67,15,-61.8,7.6,-3.08,-1.78,1.8
2.672,-24.4,-40.1,18.8,-3.06,-1.71,1.95
2.674,7,-17.6,12.5,-3.05,-1.8,1.89
2.676,49,-50.7,30,-2.88,-1.83,1.65
2.678,38.3,-64.8,0,-3.1,-1.98,1.93
2.68,-8.6,-57.9,-5.9,-2.85,-1.94,1.96
2.682,7.6,-9,4.7,-2.88,-2.28,1.77
2.684,5.3,-48.2,16.5,-3.05,-2.19,2.01
2.686,14.3,-3.9,-2.6,-2.86,-2.32,1.94
2.688,2.9,-37.2,-6.1,-3.03,-2.31,1.77
2.69,16.8,-46,3.8,-2.97,-2.46,1.89
2.692,-6.1,-57.7,-12.6,-2.72,-2.66,1.88
2.694,0.8,-60.2,7.1,-2.93,-2.51,2.04
2.696,7.4,-52,8.8,-2.91,-2.68,1.77
2.698,-3.3,-62.8,11.3,-2.81,-2.86,1.78
2.7,-3.9,-56.1,1.8,-2.88,-2.97,1.88
2.702,15.7,-44.2,11,-2.88,-2.55,2.01
2.704,-0.1,-74.6,9.8,-2.99,-3.09,1.79
2.706,22.2,-52.9,1.5,-2.89,-2.92,1.67
2.708,26.5,-5.8,17.6,-2.89,-3.21,1.92
2.71,23.7,-30.2,24.2,-2.8,-3.1,2.09
2.712,18.9,-21.9,4.2,-2.74,-3.11,2.04
2.714,1.8,-43.2,6.7,-2.89,-3.22,2.14
2.716,2.5,9.5,5.8,-2.89,-3.33,1.99
2.718,-7.2,-56.8,1.2,-2.74,-3.38,1.97
2.72,-11.1,-35.6,7.4,-2.88,-3.38,1.87
2.722,3.2,-60.8,7.8,-2.93,-3.45,2.06
2.724,-11.9,-30.1,-5,-2.97,-3.36,1.96
2.726,29.7,-45.2,18,-2.77,-3.35,1.9
2.728,1.8,-49.2,8.7,-2.95,-3.59,2
2.73,-6.5,-4.2,2.4,-2.78,-3.47,1.96
2.732,1.6,-27.5,7.4,-2.61,-3.5,1.94
2.734,11.1,-59,-2.4,-2.8,-3.79,1.82
2.736,-21.4,-47,-7.5,-2.72,-3.62,1.98
2.738,-9.6,-42.2,4.6,-2.85,-3.58,2.14
2.74,-16.5,-55.5,7.1,-2.43,-3.78,1.78
2.742,5.8,-19.8,-0.1,-2.84,-3.52,2.06
2.744,-3.9,-40.3,0,-2.59,-3.59,1.84
2.746,11.2,-66.2,1,-2.91,-3.77,2.07
2.748,30.3,22.3,-9.3,-2.73,-3.68,2.03
2.75,12.3,-29.9,15.1,-2.84,-3.79,2.12
2.752,-15.3,-86.4,12.3,-2.76,-3.69,1.82
2.754,-33.3,-26.1,11.1,-2.68,-3.82,1.81
2.756,-11,-38,-18,-2.57,-3.76,1.98
2.758,5.5,-46.1,-6.1,-2.77,-3.77,2.03
2.76,13.7,4.2,8.8,-2.64,-3.86,2.07
2.762,-23.4,-70.7,1.7,-2.53,-3.85,1.93
2.764,7.5,-39.9,10.9,-2.6,-4.02,1.97
2.766,9.2,10.4,7.5,-2.4,-3.8,1.88
2.768,17.3,-16.9,-19.5,-2.51,-4.02,1.9
2.77,43.8,-42,6.2,-2.73,-4.01,1.95
2.772,-25.4,-32.6,5.3,-2.56,-4.14,2.11
2.774,-9.5,-8.5,8,-2.68,-4.02,2.09
2.776,12.5,-52.9,-3.3,-2.49,-4.27,1.77
2.778,13.3,-23.1,12.1,-2.53,-4.14,1.84
2.78,9,-33.4,1.3,-2.58,-4.19,1.85
2.782,-19,-68.2,-11.2,-2.44,-4.12,1.97
2.784,-4.1,-38.9,-1.6,-2.5,-4.23,1.91
2.786,7.6,-38.8,0.8,-2.62,-4.27,1.86
2.788,-12.5,-40.2,-2,-2.4,-4.32,1.75
2.79,14.9,-23.7,-3.2,-2.45,-4.15,1.85
2.792,17.7,-23.4,15.8,-2.59,-4.14,2.11
2.794,14.9,-26.8,15.5,-2.46,-4.24,1.8
2.796,38.3,26.2,8.7,-2.55,-4.41,1.89
2.798,51.3,-13.5,10.3,-2.42,-4.25,1.66
2.8,21.2,-57.1,4.6,-2.32,-4.24,1.82
2.802,-1.3,-44.3,-1.6,-2.52,-4.34,1.69
2.804,16.4,-24.7,16.9,-2.41,-4.38,1.92
2.806,12.8,-25,28.6,-2.28,-4.36,1.99
2.808,9.3,-26.1,3,-2.21,-4.47,1.63
2.81,1.7,-16,-4.4,-2.28,-4.08,2.05
2.812,-21.9,-61.8,-17.1,-2.25,-4.32,1.65
2.814,-31.7,-66.9,-18,-2.38,-4.51,1.78
2.816,-33.6,-35.6,-17.7,-2.44,-4.55,1.64
2.818,-25,-49,5,-2.72,-4.62,1.71
2.82,-6,-44.6,17.2,-2.38,-4.43,1.86
2.822,11.9,-0.4,-10.3,-2.33,-4.64,1.83
2.824,1.2,-63.9,-4.2,-2.32,-4.54,1.75
2.826,22,-42.2,7.8,-2.47,-4.6,1.87
2.828,-27.3,-35.3,-5.2,-2.33,-4.41,1.58
2.83,21.3,-53.2,0,-2.28,-4.63,1.56
2.832,-20.7,-43.3,-1.2,-2.42,-4.61,1.59
2.834,-15.5,-29.8,-6,-2.2,-4.71,1.88
2.836,22.2,-33,-8.8,-2.64,-4.65,1.72
2.838,2.3,-12.2,-6.4,-2.22,-4.78,1.73
2.84,3.7,-16.5,6.8,-2.36,-4.74,1.45
2.842,23.2,-77.6,10.4,-2.33,-4.64,1.79
2.844,3.2,-23.1,3.2,-2.34,-4.72,1.42
2.846,4.7,27.5,7.6,-2.45,-4.75,1.78
2.848,12.8,-51.3,10.2,-2.33,-4.8,1.43
2.85,48.7,-15.7,-3.7,-2.4,-4.83,1.8
2.852,24.8,0,5.3,-2.48,-4.93,1.6
2.854,-27.4,-36.4,0.7,-2.27,-4.78,1.91
2.856,1.3,-34,8.1,-2.29,-4.74,1.67
2.858,10.5,-13,5.6,-2.23,-4.78,1.95
2.86,4.6,-19.3,0.8,-2.51,-4.88,1.46
2.862,9,-16,-6.9,-2.18,-4.82,1.73
2.864,6,-19.5,-8.9,-2.53,-4.92,1.71
2.866,-5.7,-51.2,-2.5,-2.43,-4.79,1.84
2.868,-4.4,-52.4,9.4,-2.27,-4.94,1.85
2.87,-6.8,6.6,7.1,-2.35,-4.98,1.76
2.872,18.9,-11.8,5,-2.19,-4.79,1.62
2.874,6.5,-44.3,-5.4,-2.52,-5.06,1.71
2.876,-7.9,-14,1.8,-2.52,-4.87,1.85
2.878,-2.4,-24,6.6,-2.49,-5.03,1.6
2.88,46.8,-51.3,5.9,-2.43,-4.97,1.85
2.882,-23.7,-49.4,0,-2.3,-4.75,1.87
2.884,-24.7,-50.1,-9.9,-2.35,-5.06,1.56
2.886,-3.2,-45.9,-1.6,-2.36,-5.16,1.6
2.888,7.6,-47.5,5.5,-2.29,-5.13,1.67
2.89,7.3,-59.5,-5.8,-2.27,-5.06,1.85
2.892,7.7,-44.1,-10.7,-2.26,-4.97,1.55
2.894,-6.7,-43.3,18.6,-2.38,-4.99,1.71
2.896,-2.3,-47.2,2.8,-2.3,-4.9,1.86
2.898,-25.7,-81.5,-15.6,-2.48,-4.87,1.75
2.9,13.5,-1.3,-9.1,-2.28,-4.96,1.9
2.902,18.5,-22.4,1.4,-2.29,-4.95,2.05
2.904,44.2,-19,-1.7,-2.28,-5.14,2.16
2.906,6.9,-2.5,-23.4,-2.25,-5.06,1.88
2.908,14.7,-52.2,21.1,-2.32,-5.03,2.09
2.91,-2,-41.5,23,-2.27,-4.92,2.03
2.912,25.2,-34.3,-5.1,-2.31,-4.93,1.99
2.914,-36.6,-55.3,-18.7,-2.38,-4.86,2.02
2.916,4.3,-37.4,3.1,-2.35,-5.1,1.98
2.918,-11.7,-41.2,-13.6,-2.12,-4.93,1.88
2.92,11.3,-11.6,-2.8,-2.14,-5.01,2.03
2.922,3.3,0.1,20.2,-2.3,-4.91,1.92
2.924,0.2,-25.4,16.5,-2.17,-4.93,1.81
2.926,-10.2,-54,-13.7,-2.15,-5.02,1.81
2.928,3.5,-24.8,-11.4,-2.09,-5.03,1.83
2.93,22.7,1.2,2.9,-2.36,-5.15,1.91
2.932,-15.1,-22.6,-4.7,-2.05,-4.99,1.97
2.934,3.2,-14.9,16.2,-2.32,-4.95,1.96
2.936,17.5,-19.1,12.2,-2.15,-4.9,1.94
2.938,6.7,-18,20.8,-2.2,-5.07,1.89
2.94,-16.7,-25.8,-1.2,-2.38,-4.85,1.92
2.942,-31.1,-8.1,-9.1,-2.23,-5.12,1.9
2.944,-16.9,-5.3,7.7,-2.18,-4.82,1.73
2.946,-6,-20.2,-0.5,-2.15,-4.88,2.16
2.948,-1.4,-6.1,-0.7,-2.18,-5.13,1.83
2.95,5.9,-31.5,6.9,-2.17,-5.11,1.79
2.952,-11.6,0,-14.9,-2.17,-4.9,1.83
2.954,-0.6,4,-3.8,-2.36,-5.12,2.03
2.956,20,-6.7,-22.4,-1.88,-4.88,1.97
2.958,32.9,3.7,18.5,-2.27,-4.99,2.06
2.96,-14.9,-9.8,0.4,-2.14,-4.89,1.8
2.962,-2.3,-15.4,2.9,-1.99,-5.06,1.92
2.964,-18.8,-2,10.6,-2.21,-5.07,1.66
2.966,9.3,-17.9,3,-2,-4.95,1.76
2.968,0.5,-2.7,-8.7,-2.17,-4.95,1.85
2.97,0.7,1.7,12.5,-2.31,-5.04,1.81
2.972,10.3,-5.6,19,-2.09,-5.02,1.81
2.974,21.3,15,13.4,-2.04,-4.91,1.71
2.976,34,36.7,9.6,-2.21,-4.9,2.1
2.978,-13.2,-39.6,11.1,-2.09,-4.85,1.57
2.98,-22.2,-17.4,-18.8,-2.2,-5.03,1.74
2.982,-3.4,21.9,-2.3,-2.13,-5.1,1.71
2.984,2.9,12.9,17.5,-2.1,-4.96,1.68
2.986,4.1,0.2,11.7,-2.19,-5.06,1.73
2.988,18.9,10,0.1,-2.26,-5.02,1.95
2.99,-29.3,-50.1,15.1,-2.3,-5.15,1.49
2.992,-26.7,-11.6,16.6,-2.02,-4.93,1.57
2.994,-13.7,-5.6,-5.1,-2.06,-5,1.58
2.996,16.8,-8.8,0.6,-2.17,-4.88,1.94
2.998,17.5,-10.4,2.4,-2.06,-4.9,1.56
3,-23,40.2,-15.3,-2.04,-4.96,1.69
3.002,12,35.4,10.4,-2.22,-5.24,1.75
3.004,-27,-48.5,-0.9,-2.2,-5.04,1.47
3.006,-1,-11.2,4.2,-1.88,-4.98,1.62
3.008,10.3,28.2,-5.6,-2.18,-5.21,1.53
3.01,-3.4,-23.1,6.7,-2.14,-5.15,1.52
3.012,-19.3,1.6,-0.3,-2.11,-4.84,1.49
3.014,-11.5,-28.9,4.1,-2.09,-5.01,1.43
3.016,-16.8,-49.2,0,-2.15,-4.85,1.34
3.018,-10.1,-17.2,12.5,-2.28,-4.86,1.79
3.02,1.8,-5.4,-8.9,-2.17,-4.93,1.15
3.022,-28.2,-40.5,-21.9,-2.35,-5,1.54
3.024,-2.7,-2.3,8.2,-2.28,-4.88,1.59
3.026,-36.1,-13.5,-5.8,-2.22,-5.04,1.52
3.028,5.4,-46.8,8.5,-2.17,-5.04,1.39
3.03,-2.1,1.8,11.8,-2.32,-4.93,1.37
3.032,6.2,0,8.2,-2.14,-4.92,1.18
3.034,5.1,-47,5.8,-2.34,-4.94,1.6
3.036,1.7,-28.9,6.7,-2.06,-4.95,1.4
3.038,21,8.3,9.5,-2.23,-5.1,1.45
3.04,9.1,-42.2,7.5,-2.18,-5.03,1.22
3.042,-1.6,-45.3,13.9,-2.15,-4.92,1.23
3.044,-35.2,-3.4,12,-2.23,-4.9,1.48
3.046,-2.6,-24.2,-8.4,-2.2,-4.86,1.67
3.048,-10.7,-16.7,-7.2,-2.16,-4.94,1.33
3.05,-4.8,-30,-9.3,-2.43,-5.03,1.49
3.052,-9.7,-20.7,4.9,-2.01,-4.81,1.56
3.054,5.7,-29.1,-4.2,-2.35,-4.97,1.44
3.056,19.6,16.5,8.3,-2.11,-5.03,1.36
3.058,11.7,-30.5,18.4,-2.28,-5.05,1.62
3.06,2.4,-27.1,-11.2,-2.06,-5.04,1.23
3.062,-3.2,-23.2,-0.2,-2.32,-4.87,1.77
3.064,4.9,-31.4,11.5,-2.17,-4.89,1.6
3.066,-22.7,-44.5,6.9,-2.19,-4.81,1.5
3.068,-12.1,-38,-8.9,-2.15,-4.93,1.42
3.07,-7.3,-18.7,-5.6,-2.06,-4.94,1.45
3.072,31.3,-17.7,5.4,-2.07,-4.91,1.49
3.074,16.1,-12.8,-8.3,-2.2,-5.02,1.64
3.076,27.8,-25,-14.2,-2.26,-4.82,1.6
3.078,17.5,-38,8.7,-2.12,-5.03,1.35
3.08,6.7,-13.9,15.3,-2.24,-4.93,1.68
3.082,18.8,9.7,-3.5,-2.01,-4.89,1.6
3.084,7.6,-28.2,2.8,-2.23,-4.84,1.76
3.086,4.6,3,3.7,-1.97,-4.82,1.56
3.088,24,-10.4,-7.1,-2.15,-4.89,1.57
3.09,42.8,5,1.4,-2.09,-4.96,1.76
3.092,16.7,-21.4,2.5,-2.05,-4.87,1.63
3.094,10.9,-35.9,15.2,-2.21,-4.96,1.57
3.096,-6.9,-43.4,-3,-2.03,-4.82,1.57
3.098,1.1,-32.8,3.9,-2.15,-5.01,1.79
3.1,17.2,-26,11.8,-2.11,-5.02,1.58
3.102,2.5,-29.1,4.1,-1.89,-4.84,1.65
3.104,8.8,-13.9,-14.7,-2.08,-4.94,1.96
3.106,-0.1,-19.2,8.6,-2.08,-4.93,1.72
3.108,4.2,-10.3,13.7,-2.04,-4.89,1.71
3.11,6.5,-21.4,-0.3,-2.3,-4.77,1.76
3.112,10,-13,4.9,-1.87,-4.86,1.42
3.114,30.5,-15.3,-4.9,-2.2,-4.82,1.7
3.116,-3.4,-11.8,1.1,-2.01,-5.05,1.55
3.118,21.1,-2.3,18.8,-2.02,-4.99,1.43
3.12,9.5,-45.8,5,-1.95,-5.03,1.88
3.122,-11.9,0.4,10.5,-2.07,-4.83,1.64
3.124,9.1,10.5,-13.3,-1.95,-4.89,1.64
3.126,5.4,-11,-2.6,-2.04,-4.95,1.63
3.128,7.4,-8.9,2.7,-1.99,-4.88,1.77
3.13,9.3,21.7,2.5,-1.84,-4.76,1.58
3.132,-15.7,-10.4,0,-2.05,-4.91,1.67
3.134,-2.5,12.3,-2.6,-1.92,-4.9,1.7
3.136,13.6,28.6,-3.7,-2.05,-4.85,1.78
3.138,8.8,9.7,-0.3,-1.76,-4.87,1.7
3.14,15.7,4.1,6.3,-2.06,-4.88,1.54
3.142,3.4,18.9,0.2,-2,-4.9,1.77
3.144,7.4,-11.4,-2.4,-2,-4.89,1.61
3.146,-6,16.9,6.4,-1.88,-4.81,1.67
3.148,13.2,7.2,4.2,-1.83,-4.82,1.6
3.15,-17.1,-8.1,-7.9,-1.8,-4.75,1.69
3.152,32.5,-1.9,10,-1.8,-4.74,1.88
3.154,5.4,5.7,4.6,-2.14,-4.92,1.81
3.156,13,6.3,8.8,-1.72,-4.77,1.58
3.158,0.7,3,0.5,-1.88,-4.75,1.72
3.16,-26.1,-26.3,2.2,-1.85,-4.76,1.7
3.162,10.1,41.8,4.8,-1.77,-4.94,1.57
3.164,-28.3,-14.1,-2.8,-1.69,-4.8,2.01
3.166,-7.6,-0.4,-9.9,-1.74,-4.81,1.85
3.168,-4.9,-1.1,10.4,-1.93,-4.84,1.75
3.17,5,11,1.1,-2,-4.9,1.63
3.172,-5.9,15.9,6.9,-1.74,-4.71,1.81
3.174,-6.7,20,11.1,-1.75,-4.88,1.63
3.176,8.1,30.3,7.4,-1.72,-4.78,1.77
3.178,40.6,39.4,7.6,-1.76,-4.66,1.77
3.18,12.1,44.4,12.7,-1.93,-4.84,1.86
3.182,-10.4,25.4,0.8,-1.65,-4.77,1.27
3.184,8.8,24.5,-5.2,-1.97,-4.75,1.73
3.186,8.9,42.2,6.4,-2.12,-4.91,1.54
3.188,16,21.4,10.1,-1.8,-4.65,1.66
3.19,2.3,-1.3,3.9,-2.1,-4.82,1.52
3.192,-15.6,25.4,4.8,-1.63,-4.75,1.38
3.194,-3.9,6.6,4.3,-1.93,-4.8,1.56
3.196,-10.2,-10.5,-7.6,-2.03,-4.89,1.42
3.198,13,41.5,6.2,-1.88,-4.81,1.35
3.2,22.6,39.6,15.7,-1.96,-4.74,1.47
3.202,-23.5,35.9,2.1,-1.84,-4.77,1.29
3.204,-5.8,42,1.1,-1.66,-4.85,1.51
3.206,6.4,15.4,11.7,-1.93,-4.8,1.5
3.208,30.8,40.5,9.3,-1.64,-4.72,1.42
3.21,-20.2,11.3,-6.4,-1.96,-4.85,1.38
3.212,-44.7,-12.1,-8.8,-1.82,-4.66,1.45
3.214,-8.1,15.6,5.5,-1.85,-4.79,1.45
3.216,-1.1,5.1,10.8,-1.75,-4.72,1.34
3.218,23.1,39,3.4,-1.97,-4.77,1.3
3.22,-1.6,29.3,-0.2,-1.91,-4.76,1.39
3.222,-11.2,7.2,-5,-1.97,-4.88,1.53
3.224,3.8,27.9,4.7,-1.61,-4.75,1.23
3.226,-3.8,19.3,0.5,-1.92,-4.76,1.41
3.228,8.8,23.5,6.4,-1.81,-4.86,1.42
3.23,-2.5,30.2,4.8,-1.98,-4.69,1.4
3.232,-2.9,26.1,3.4,-1.95,-4.9,1.07
3.234,32.4,31.5,4.1,-1.77,-4.85,1.17
3.236,-10.4,-15.6,-6.5,-1.92,-4.81,1.51
3.238,-19.7,-0.9,-9.4,-1.67,-4.75,1.32
3.24,-16.2,-1.2,3.2,-2,-4.92,1.36
3.242,-9.7,9.1,-7.9,-1.8,-4.74,1.3
3.244,3.7,-9.3,5.5,-1.67,-4.77,1.54
3.246,20.4,12.9,-2.8,-1.76,-4.81,1.31
3.248,-3.8,22.3,6.2,-1.77,-4.85,1.18
3.25,-7.9,28.9,-0.9,-1.81,-4.88,1.26
3.252,-35.9,-7.9,1.5,-1.67,-4.6,1.49
3.254,18.2,14.7,0.7,-1.81,-4.69,1.39
3.256,28.4,13.6,1.2,-1.76,-4.74,1.46
3.258,13.8,3.9,15.2,-1.74,-4.66,1.37
3.26,17.3,11.3,-1.4,-1.82,-4.93,1.03
3.262,-28.6,7.3,-6.7,-1.74,-4.84,1.39
3.264,2.3,-1.3,4.1,-1.78,-4.73,1.52
3.266,21.8,34.5,-8.8,-1.88,-4.84,1.52
3.268,26.3,11.6,-1.8,-1.82,-4.72,1.4
3.27,-17.2,-5.2,-11.9,-1.75,-4.62,1.24
3.272,-8.1,16.7,-4.2,-1.79,-4.86,1.46
3.274,2.5,-2.6,1.3,-1.73,-4.68,1.29
3.276,15.4,-5.4,12.2,-1.75,-4.81,1.51
3.278,13.2,17.5,21.4,-1.64,-4.76,1.48
3.28,-15.1,13,-14,-1.79,-4.84,1.44
3.282,-15.3,7.4,-25.2,-1.64,-4.77,1.57
3.284,-1.5,24.7,16.7,-1.75,-4.75,1.51
3.286,12.4,28.2,8.7,-1.79,-4.66,1.46
3.288,8.2,29.1,-3.7,-1.73,-4.74,1.46
3.29,-6.3,19.1,16.7,-1.74,-4.82,1.34
3.292,-20.5,4.9,10.6,-1.58,-4.67,1.63
3.294,-33.9,-11.1,-8.9,-1.73,-4.7,1.38
3.296,37.4,15,1.3,-1.61,-4.8,1.56
3.298,35.8,29.7,14.1,-1.54,-4.71,1.61
3.3,-16.5,30.2,2.9,-1.65,-4.69,1.3
3.302,-22.6,20.9,-15.8,-1.67,-4.68,1.48
3.304,8.6,10.9,13.9,-1.54,-4.59,1.53
3.306,8.1,31.9,8.8,-1.69,-4.78,1.69
3.308,-0.6,26.9,0.4,-1.56,-4.67,1.65
3.31,-12.4,12.4,-2.2,-1.55,-4.72,1.41
3.312,-0.8,27.2,3.9,-1.58,-4.7,1.72
3.314,15.6,36.4,7.2,-1.62,-4.83,1.39
3.316,28.9,33.1,4.3,-1.43,-4.74,1.8
3.318,11.3,29.6,-3.3,-1.7,-4.74,1.43
3.32,2,33.8,9.4,-1.53,-4.61,1.79
3.322,17.5,34.5,5.9,-1.52,-4.68,1.64
3.324,-2.7,26.9,-4.9,-1.62,-4.59,1.72
3.326,2.1,22.8,8.9,-1.68,-4.79,1.55
3.328,25.2,31.2,14.8,-1.62,-4.7,1.73
3.33,18.4,27.8,-0.2,-1.61,-4.82,1.47
3.332,3.9,45.1,-10.1,-1.55,-4.7,1.67
3.334,-21.1,26.1,-1.4,-1.88,-4.71,1.52
3.336,-25.6,30.9,-2.8,-1.53,-4.53,1.47
3.338,-0.1,26.8,15.1,-1.75,-4.61,1.35
3.34,-7.9,29.1,20.2,-1.8,-4.59,1.43
3.342,-11.5,32,20,-1.71,-4.74,1.52
3.344,16.5,21.9,-4.4,-1.78,-4.82,1.59
3.346,24.3,52.9,12.3,-1.7,-4.73,1.62
3.348,-0.8,47.1,0.6,-1.92,-4.75,1.7
3.35,-7.7,69.7,-6.1,-1.82,-4.65,1.79
3.352,-7.9,53.4,22.5,-1.75,-4.68,1.62
3.354,14.8,45.7,18.3,-1.67,-4.69,1.63
3.356,26.7,78.6,-15.6,-1.89,-4.77,1.58
3.358,-4.2,21.6,-13.8,-1.76,-4.83,1.64
3.36,-14,62.2,-8,-1.51,-4.6,1.66
3.362,-1.6,73.9,7.8,-1.73,-4.65,1.64
3.364,-15.4,37.5,-5.1,-1.45,-4.65,1.27
3.366,9.9,42.8,22.1,-1.67,-4.74,1.48
3.368,-12.5,19.4,22.1,-1.65,-4.65,1.38
3.37,6.8,39.5,-20.8,-1.53,-4.67,1.26
3.372,7.7,54.5,-14.2,-1.7,-4.68,1.69
3.374,-2.3,73.9,8.7,-1.71,-4.65,1.33
3.376,28.2,63.3,10.2,-1.52,-4.53,1.32
3.378,-41.5,37.1,-16.4,-1.69,-4.79,1.51
3.38,-14.4,59.9,15.9,-1.8,-4.61,1.17
3.382,-2,14.3,22.2,-1.67,-4.75,1.36
3.384,3.2,29.8,-16.8,-1.76,-4.65,1.27
3.386,-3,37.7,-13.3,-1.9,-4.6,1.37
3.388,0,44.3,13.6,-1.61,-4.64,1.36
3.39,-6,66,1,-1.86,-4.68,1.36
3.392,-21.6,54.3,0.2,-1.76,-4.66,1.24
3.394,-20.8,35.7,-1.1,-1.69,-4.64,1.42
3.396,1.7,70.7,24.9,-1.9,-4.82,1.22
3.398,-0.8,44.2,-10,-1.55,-4.59,1.46
3.4,6.1,29.2,-15.7,-1.85,-4.82,1.19
3.402,-21.4,47.5,13.2,-1.7,-4.66,1.22
3.404,13.5,72.2,11.1,-1.61,-4.69,1.46
3.406,10.2,42,13.3,-1.58,-4.5,1.39
3.408,-18.5,41.3,12.3,-1.4,-4.47,1.33
3.41,9.1,55.1,-10.5,-1.61,-4.67,1.43
3.412,-14.9,31.9,-10.9,-1.58,-4.68,1.27
3.414,30.3,82.6,-9.5,-1.49,-4.67,1.22
3.416,-14.2,55.2,7.1,-1.39,-4.52,1.24
3.418,6.5,30.5,6.2,-1.38,-4.64,1.64
3.42,9,56.7,-7.4,-1.31,-4.59,1.25
3.422,11.8,60.2,8.1,-1.53,-4.63,1.51
3.424,6.7,46.9,4.1,-1.41,-4.58,1.5
3.426,0.9,38.2,0,-1.65,-4.76,1.2
3.428,22.1,79.7,14.3,-1.47,-4.7,1.52
3.43,-0.3,33.7,1.5,-1.56,-4.44,1.18
3.432,1.6,55.1,8.1,-1.72,-4.76,1.36
3.434,4.2,63.7,1,-1.51,-4.34,1.68
3.436,16.1,47,-1.6,-1.51,-4.54,0.92
3.438,6.6,36.6,2,-1.47,-4.45,1.29
3.44,7.4,56.6,-9.4,-1.65,-4.55,1.18
3.442,-14,38.5,6.5,-1.71,-4.66,1.09
3.444,17.6,57.5,17.8,-1.58,-4.51,1.43
3.446,8.1,58.1,-9.8,-1.58,-4.56,1.15
3.448,4.3,47.4,-9,-1.55,-4.6,1.27
3.45,6.3,38.2,3.1,-1.47,-4.6,1.09
3.452,7.8,45.1,2.1,-1.49,-4.69,1.1
3.454,2.1,48.6,1.2,-1.4,-4.69,1.43
3.456,20.3,70,11.4,-1.51,-4.66,0.96
3.458,0.5,41,12,-1.42,-4.59,1.38
3.46,-9,57.4,-6.1,-1.43,-4.44,1.28
3.462,22.4,46.9,2.7,-1.5,-4.67,1.48
3.464,27.2,83.8,-3.3,-1.35,-4.6,1.74
3.466,-0.6,49.4,-2.8,-1.37,-4.6,1.21
3.468,-9,32.9,-12.4,-1.41,-4.62,1.6
3.47,-23.7,46.6,-0.5,-1.4,-4.45,1.23
3.472,19.8,44.1,2.8,-1.39,-4.59,1.42
3.474,12.4,53.2,10.8,-1.45,-4.58,1.47
3.476,-1.1,65.2,3.9,-1.47,-4.53,1.39
3.478,42.3,60.7,-1.7,-1.41,-4.59,1.66
3.48,-30.7,29.7,-16.4,-1.54,-4.63,1.02
3.482,-19.1,63.6,22.8,-1.47,-4.64,1.39
3.484,8.1,33.2,6.9,-1.49,-4.61,1.3
3.486,-3.7,53.4,-2.6,-1.41,-4.62,1.52
3.488,14.2,69.3,18.4,-1.33,-4.66,1.51
3.49,-37.9,11.9,13.9,-1.41,-4.41,1.28
3.492,-12.6,50.5,-18.4,-1.41,-4.55,1.53
3.494,12.5,38.7,-5.3,-1.58,-4.59,1.29
3.496,-15.5,43.6,2,-1.47,-4.7,1.35
3.498,1.1,73,-1.4,-1.52,-4.56,1.63
3.5,-9.3,66.3,6.1,-1.63,-4.51,1.37
3.502,10.5,63.2,8.5,-1.45,-4.5,1.47
3.504,6,63.9,-12.1,-1.51,-4.55,1.15
3.506,1.9,62.7,-13.5,-1.43,-4.6,1.29
3.508,-1.6,54.1,-3.4,-1.42,-4.56,1.27
3.51,-17.7,64.2,-0.7,-1.51,-4.56,1.35
3.512,16.4,56.3,-0.3,-1.43,-4.53,1.34
3.514,0.8,37.6,13.7,-1.47,-4.53,1.48
3.516,-27.9,67.4,5.9,-1.41,-4.67,1.23
3.518,5.4,79.4,-4.2,-1.58,-4.45,1.56
3.52,-13.3,45.6,-5.9,-1.6,-4.54,1.53
3.522,-23,56.7,-4.9,-1.28,-4.56,1.46
3.524,5.4,69.8,-1.1,-1.53,-4.6,1.61
3.526,21.4,87.2,-0.7,-1.4,-4.55,1.54
3.528,3.2,62.3,0.4,-1.33,-4.4,1.54
3.53,-10.9,71.3,6.7,-1.44,-4.49,1.39
3.532,8,91.9,-7.9,-1.61,-4.55,1.66
3.534,-11.3,73.5,-6.4,-1.39,-4.47,1.48
3.536,2.8,65.1,6.2,-1.37,-4.56,1.31
3.538,-13.8,60.2,3.8,-1.35,-4.7,1.52
3.54,11.6,87.6,8.6,-1.33,-4.51,1.34
3.542,12,98.2,10,-1.43,-4.62,1.49
3.544,11.1,58.8,6.2,-1.37,-4.51,1.37
3.546,-16.9,44.1,-8.5,-1.29,-4.53,1.56
3.548,-5.3,64.7,4.8,-1.47,-4.46,1.38
3.55,-4.6,84.9,-3.6,-1.32,-4.49,1.57
3.552,3,80.3,0,-1.52,-4.55,1.38
3.554,18,73.1,0.6,-1.54,-4.56,1.3
3.556,-2,77.9,7.1,-1.52,-4.47,1.43
3.558,-14.3,80.2,9.2,-1.45,-4.67,1.39
3.56,9.6,63.2,18.6,-1.29,-4.44,1.67
3.562,-7.4,86,8,-1.67,-4.57,1.3
3.564,11.4,93.8,-8.2,-1.3,-4.57,1.46
3.566,-29.3,57.8,-13.7,-1.4,-4.47,1.11
3.568,-17.4,75.5,5,-1.64,-4.48,1.42
3.57,3.8,80.1,9.5,-1.39,-4.54,1.49
3.572,18.2,82.6,1.7,-1.4,-4.4,1.29
3.574,13.1,98.6,4.5,-1.3,-4.38,1.28
3.576,-17.4,100.1,-9.2,-1.45,-4.47,1.6
3.578,-20.3,61.4,2.6,-1.33,-4.32,1.41
3.58,3.5,95.9,0.9,-1.32,-4.45,1.42
3.582,-1.8,86.1,1.1,-1.54,-4.48,1.55
3.584,22.2,76.6,5.1,-1.42,-4.45,1.37
3.586,14,97.5,1.1,-1.3,-4.36,1.54
3.588,-3,92,0.4,-1.45,-4.44,1.08
3.59,14.9,82.1,6.3,-1.25,-4.5,1.37
3.592,-5.5,104.2,-7.7,-1.37,-4.5,1.05
3.594,5.1,93.3,4.1,-1.48,-4.24,1.2
3.596,4.5,92.7,9.7,-1.28,-4.47,1.14
3.598,1.3,111.7,1.5,-1.48,-4.49,1.33
3.6,-0.8,85.8,-2.8,-1.28,-4.33,1.34
3.602,21,85.4,23.4,-1.42,-4.48,1.09
3.604,1.1,84.9,-8.7,-1.26,-4.4,1.21
3.606,-21.2,89.2,-13.2,-1.4,-4.42,1.22
3.608,-20.2,60.7,12.4,-1.28,-4.34,1.2
3.61,14.7,102.1,1.3,-1.37,-4.35,1.2
3.612,7.7,94.9,3.7,-1.34,-4.37,1.12
3.614,2.4,71.1,23.5,-1.48,-4.48,1.29
3.616,-6.2,74.2,14.7,-1.43,-4.4,1.15
3.618,-1.5,81.5,-19.4,-1.43,-4.53,1.16
3.62,12.8,88.5,-5.7,-1.41,-4.4,1.36
3.622,3.8,84,9.9,-1.37,-4.43,1.31
3.624,-1.5,75.2,-0.5,-1.33,-4.43,1.06
3.626,3.1,69.5,10.2,-1.25,-4.29,1.14
3.628,-20.9,81.6,10.2,-1.42,-4.51,1.13
3.63,14.4,83.2,-20.3,-1.36,-4.37,1.12
3.632,6.9,89.6,-13,-1.28,-4.44,1.02
3.634,12.6,85.4,-10.3,-1.3,-4.28,1.32
3.636,-10,82.2,12.2,-1.34,-4.54,1.28
3.638,12.3,74,-0.6,-1.31,-4.5,1.19
3.64,16.3,80.2,-0.8,-1.39,-4.34,1.01
3.642,21.4,61.3,12.7,-1.45,-4.44,1.12
3.644,-0.7,83.7,-13.3,-1.54,-4.52,1.18
3.646,-4.3,83.5,-3.7,-1.31,-4.39,1.25
3.648,2.8,62.8,10.7,-1.51,-4.34,1.19
3.65,5.6,90.8,2.4,-1.25,-4.51,1.37
3.652,29.6,113.7,-9.5,-1.42,-4.46,1.27
3.654,7.9,71.9,23.8,-1.35,-4.36,1.41
3.656,-22.9,72.7,15,-1.36,-4.34,1.24
3.658,-16.6,70.5,-11,-1.35,-4.39,1.12
3.66,-8.1,77.9,-6.6,-1.21,-4.36,1.2
3.662,6.2,60.4,2,-1.42,-4.34,1.2
3.664,0,103.6,-9.3,-1.39,-4.36,1.51
3.666,-13.5,80,9.4,-1.27,-4.38,1.41
3.668,3.9,72.3,12.7,-1.24,-4.53,1.43
3.67,17.4,97.6,19.3,-1.27,-4.41,1.29
3.672,4.1,75.1,-13.4,-1.2,-4.46,1.22
3.674,-3.3,85.2,-4.5,-1.22,-4.41,1.44
3.676,-13.1,91.4,-6.3,-1.19,-4.41,1.46
3.678,-0.5,96.1,-9.6,-1.2,-4.35,1.49
3.68,20.7,106.1,10.4,-0.97,-4.26,1.42
3.682,25.3,118.7,14.4,-1.14,-4.33,1.48
3.684,-0.6,82.1,-1.9,-1.09,-4.32,1.6
3.686,-26.1,86.9,-4.4,-1,-4.44,1.41
3.688,26.1,89.2,-8.8,-1.06,-4.24,1.58
3.69,28.7,77.9,4.9,-1.06,-4.1,1.35
3.692,-7.4,109.3,-2.7,-1.1,-4.18,1.39
3.694,-13.1,121.1,3.9,-1.11,-4.35,1.72
3.696,-5.7,98,13.4,-0.9,-4.26,1.48
3.698,6.7,97.7,2.8,-1.05,-4.4,1.49
3.7,-3.8,107.6,-3.3,-1.16,-4.33,1.48
3.702,-13.9,91.6,6.6,-0.98,-4.22,1.39
3.704,7.6,140.5,6,-1.23,-4.35,1.36
3.706,4.5,103.6,1.8,-1.11,-4.44,1.17
3.708,-8.1,96.8,0.6,-1.14,-4.14,1.29
3.71,3.7,122.7,21.2,-1.28,-4.38,1.28
3.712,-3.9,126.9,-7,-1.06,-4.45,1.29
3.714,-9.6,102.4,1.1,-1.43,-4.58,1.34
3.716,7.7,116.2,10.4,-1.32,-4.44,1.31
3.718,12.1,116.6,7.8,-1.31,-4.32,1.24
3.72,9.5,99.8,2.6,-1.32,-4.27,1.32
3.722,-18.2,101.8,2.9,-1.34,-4.41,1.15
3.724,-29.4,120,-10.7,-1.37,-4.31,1.36
3.726,-16.7,108.2,1.3,-1.47,-4.51,1.32
3.728,-6.9,128.3,-0.7,-1.3,-4.33,1.17
3.73,1.4,132.3,-8.3,-1.35,-4.42,1.51
3.732,-7.6,87.6,2.7,-1.16,-4.29,1.24
3.734,-13.8,103.6,0.5,-1.21,-4.34,1.4
3.736,-2.7,129.6,12.6,-1.29,-4.15,1.21
3.738,7.4,109.6,0,-1.16,-4.23,1.28
3.74,1.7,130.9,3.1,-1.19,-4.29,1.55
3.742,-10.8,123.9,3,-1.05,-4.38,1.34
3.744,-19.8,107.4,-0.2,-1.04,-4.26,1.54
3.746,-10.7,106.8,-10,-1.1,-4.32,1.38
3.748,10.5,140.2,5.3,-1.03,-4.28,1.42
3.75,-0.6,146,1.3,-1.27,-4.51,1.4
3.752,-1.7,133.5,-4.6,-1.11,-4.43,1.1
3.754,-4.6,136,-3.7,-1.2,-4.29,1.43
3.756,5.6,141.1,5.9,-1.3,-4.41,1.46
3.758,-13.4,115.4,0.6,-1.02,-4.06,1.39
3.76,-4.3,117,-8.9,-1.12,-4.38,1.48
3.762,3.5,125.9,1.1,-1.33,-4.31,1.07
3.764,2.3,144.8,7.8,-1.24,-4.21,1.21
3.766,4.4,139.9,-8.2,-1.34,-4.33,1.09
3.768,3.4,133,-4.2,-1.23,-4.31,1.01
3.77,-0.7,143.5,0.6,-1.19,-4.33,1.03
3.772,5,129.7,11.6,-1.34,-4.41,1.03
3.774,3.9,122.7,9.4,-1.27,-4.18,1.3
3.776,-20,129.7,7.6,-1.41,-4.27,1.11
3.778,-7.1,128.5,2.3,-1.24,-4.45,1.25
3.78,0.1,127.4,5.2,-1.16,-4.32,0.96
3.782,14,136,2.9,-1.21,-4.2,1.12
3.784,10.9,118.7,9.5,-1.11,-4.32,1.1
3.786,-28.2,122.7,5.6,-1.19,-4.31,1.21
3.788,23.3,131.9,-1.2,-1.27,-4.12,1.29
3.79,-13.9,119.7,2.8,-1.18,-4.3,1.12
3.792,-34.2,110.1,-13.9,-1.32,-4.17,1.12
3.794,-11.3,146,-6.7,-1.29,-4.11,1.24
3.796,-10.2,135.9,6.8,-1.15,-4.15,1.18
3.798,-10,112.7,4.1,-1.27,-4.24,1.32
3.8,26.1,147,-0.7,-1.3,-4.26,1.27
3.802,-3.7,132.3,2.2,-1.15,-4.26,1.34
3.804,-13.5,125.9,-2.4,-1.16,-4.31,1.18
3.806,-6.5,127.1,-5.8,-1.19,-4.28,1.41
3.808,0.1,123.6,0.1,-1.28,-4.3,1.23
3.81,-5.6,127.6,10.3,-0.99,-4.25,1.13
3.812,6.2,148.2,3.2,-1.08,-4.25,1.26
3.814,-7.2,141.2,0,-1.15,-4.4,1.14
3.816,-11.1,127.7,2.7,-0.96,-4.28,1.24
3.818,-2.7,156.8,2.5,-1.19,-4.26,1.16
3.82,0.4,133.2,0,-1.18,-4.29,1.18
3.822,-4.4,122.2,-8.2,-1.21,-4.25,1.06
3.824,-13.8,144.1,9.8,-1.27,-4.18,1.19
3.826,-5.7,124.1,12.3,-1.1,-4.35,0.89
3.828,-6.7,112.4,-5.9,-1.24,-4.26,1.01
3.83,7.9,137.6,-5.6,-1.25,-4.19,1.02
3.832,5.6,130.1,6.6,-1.17,-4.19,0.9
3.834,3.9,117.4,3.4,-1.2,-4.26,0.95
3.836,-10.2,144.6,-7.7,-1.14,-4.25,1.06
3.838,18.2,144.5,3.4,-0.99,-4.29,0.93
3.84,-1.3,104.5,0.6,-1.21,-4.37,1.16
3.842,13,133.6,-2.2,-1.05,-4.18,1.14
3.844,-19.3,119.1,0.6,-1.25,-4.15,1.31
3.846,-19.3,111.8,-1,-1.1,-4.32,1.02
3.848,14.6,126.9,0,-0.8,-4.27,1.21
3.85,28.9,151.7,8.4,-1.36,-4.22,1.5
3.852,1.8,152.3,3.2,-1.07,-4.12,1.56
3.854,-19,145.8,9.6,-1.07,-4.2,1.33
3.856,6.3,142.5,-2.9,-0.95,-4.14,1.57
3.858,19.3,140.9,-1.8,-0.81,-4.34,1.41
3.86,4.2,137.9,7.5,-1.03,-4.14,1.31
3.862,-1.3,147.8,5.7,-0.96,-4.15,1.29
3.864,-13.5,141.9,-9.4,-1.01,-4.15,1.23
3.866,-17.4,141.2,-1.9,-1.11,-4.1,1.63
3.868,-12.5,119.9,-9.5,-1.16,-4.31,1.19
3.87,8.1,152.6,-7.7,-0.99,-4.25,1.37
3.872,-18.3,143,-15.6,-0.96,-4.13,1.28
3.874,-1.6,145,12.5,-1.14,-4.29,1.28
3.876,-23,127.3,11.8,-1.14,-4.31,1.46
3.878,-0.6,170.2,-16.1,-1.09,-4.11,1.17
3.88,9.3,148.4,-2.5,-1.19,-4.27,1.38
3.882,-17.8,148.4,-5.5,-1.11,-4.13,1.27
3.884,-3.2,149.5,-0.9,-1.25,-4.3,1.13
3.886,2.3,144.5,11,-1.07,-4.09,1.55
3.888,0,156.3,-1.9,-1.36,-4.18,1.15
3.89,-4.3,129.7,3.9,-1.11,-4.14,1.36
3.892,4.9,157.9,-3.3,-1.19,-4.27,1.27
3.894,-33.5,148.2,1.5,-1.12,-4.35,1.22
3.896,-8.2,174.3,1.4,-0.98,-4.11,1.39
3.898,-4.1,151.2,-1.6,-1.07,-4.12,1.1
3.9,-12.5,147.4,1.9,-1,-4.08,1.42
3.902,-5.8,169.8,0.8,-1.02,-4.03,1.16
3.904,-7.3,162.4,1.3,-1.16,-4.21,1.51
3.906,-18.2,148.8,9.2,-1.05,-4.15,1.43
3.908,-3.6,171.5,8.9,-0.97,-4.08,1.26
3.91,-7.9,173.3,-9.7,-0.93,-4.13,1.35
3.912,-18.9,146.7,-14.2,-1.03,-4.28,1.23
3.914,4.3,187.3,4,-1,-4.19,1.4
3.916,1.8,178.5,12.3,-1.02,-4.19,1.51
3.918,-7.9,145.5,-2.1,-1.07,-4.19,1.42
3.92,-10.7,180.3,-5.4,-1.01,-4.1,1.19
3.922,-0.6,164.2,4.9,-0.83,-4.1,1.45
3.924,1.8,186.2,2.7,-1.07,-4.21,1.49
3.926,-7.9,200.4,-10.9,-1.07,-4.24,1.31
3.928,-23.5,170,4.3,-1.09,-4.23,1.4
3.93,3.3,180.1,7.8,-0.99,-4.1,1.2
3.932,-10,196.6,3.3,-0.99,-4.06,1.42
3.934,-0.7,168.9,0.1,-1.22,-4.13,1.18
3.936,-15.8,174.1,-6.3,-1.19,-4.05,1.38
3.938,3.9,188.6,-5.4,-1.19,-4.02,1.14
3.94,-29.3,144,-2.4,-1.25,-4.08,1.08
3.942,4.6,186.4,4.1,-1.18,-4.06,1.13
3.944,-4.8,190.5,-1.3,-1.37,-3.97,1.29
3.946,-8.8,185.3,-2,-1.16,-4.16,1.04
3.948,-8.4,184.1,-0.9,-1.2,-4.12,1.24
3.95,-9.1,163.7,12.6,-1.19,-4.1,0.96
3.952,-1.7,169.1,7.8,-1.15,-4.11,1.18
3.954,-17.3,174.3,-3.7,-1.1,-4.02,1.16
3.956,-19.2,194.4,-10.7,-1.02,-4.09,1.06
3.958,-1.1,181.4,8.9,-1.13,-4.19,1.19
3.96,12.4,181,-1.2,-1.02,-4.08,0.97
3.962,6.6,186.9,-0.9,-1.2,-4.23,1.29
3.964,-27.5,162.6,7.4,-1,-4.06,0.84
3.966,-5.8,168.8,6.2,-1.08,-3.93,1.15
3.968,-14,175,-15.8,-1.11,-4.19,1
3.97,-6,156.9,-11.4,-1.04,-4.04,0.92
3.972,-21.3,161.5,1.6,-1.17,-4.22,1.03
3.974,6.6,167.9,7.4,-1.18,-4.29,1.16
3.976,-8.3,163.3,-2.5,-1.11,-4.09,0.81
3.978,-10.9,158.9,3.1,-1.15,-4.23,1.05
3.98,-18.6,167.1,-15.6,-1.14,-4.05,1.01
3.982,-1.3,175.4,-18,-1.24,-4.09,0.91
3.984,-16,151,-8.2,-1.1,-3.98,1.1
3.986,-9.2,155.8,4,-0.96,-3.95,0.84
3.988,-1.3,160.1,-0.5,-1.11,-4.05,1.16
3.99,-3.2,155.1,-1.1,-1,-4.06,1.03
3.992,7.9,172.2,6.7,-0.97,-4.29,1.01
3.994,-10.4,162.1,-12.4,-1.17,-4.19,1.02
3.996,-0.2,151.1,-19,-0.96,-4.11,0.95
3.998,-1.3,163.6,1.5,-1.04,-4.14,0.86
4,12.3,156.2,7.3,-0.94,-3.92,0.99
4.002,-24.4,142.4,-6,-1,-3.97,1.05
4.004,-2.2,164.9,-2.1,-0.95,-4.23,0.88
4.006,11,142.6,-0.2,-1.07,-4.02,1.06
4.008,-5.5,144.6,-13.1,-1.05,-4.26,0.93
4.01,-10.3,174.5,-10.3,-0.84,-4.01,0.86
4.012,-5.1,139.3,4.7,-1.05,-4.04,1.28
4.014,4.2,136.5,0.6,-0.85,-3.99,1.08
4.016,-0.1,149.3,-7.3,-0.96,-4.1,1.23
4.018,-9.5,129.9,-4.2,-1.06,-4.07,1.07
4.02,-10.1,147,0,-0.75,-3.97,0.97
4.022,-11.4,149.2,-5.8,-1.01,-4.14,1.06
4.024,4.5,155.2,-5.1,-1.08,-4.02,0.86
4.026,-7.7,147.4,0.1,-0.86,-4.11,0.99
4.028,11.4,149.8,9.3,-0.87,-3.97,1.1
4.03,7.3,146.6,-10.4,-0.96,-4.02,1.19
4.032,-9,152.7,-10.3,-0.86,-4.08,1.16
4.034,10.7,166.6,-4.2,-1.05,-4.08,0.98
4.036,9.3,178.7,-7.1,-0.86,-3.89,1.11
4.038,-1.8,138.8,-9.6,-0.75,-4.17,1.24
4.04,-5.8,153.1,6.2,-0.87,-3.91,0.92
4.042,-6.2,138.1,6.1,-0.9,-4.01,1.22
4.044,-20.5,146.2,-11,-0.88,-3.98,1.19
4.046,2.1,156.1,-11.9,-0.97,-4.09,1.2
4.048,-1.7,150,-2.6,-0.86,-4.02,1.09
4.05,-2.9,143.9,-5.7,-0.86,-4.07,1.22
4.052,14.5,148.9,8.2,-0.99,-3.97,1.06
4.054,-3.9,139.3,11.6,-1,-4.01,1.18
4.056,0.2,169.3,5.3,-0.7,-3.96,1.12
4.058,-3.4,157.2,-17.1,-0.99,-4.17,1.17
4.06,-19.4,151.8,-15.2,-0.85,-3.88,1.22
4.062,2.1,154.2,2.2,-1.01,-4.15,1.21
4.064,10.5,177.4,0.4,-0.78,-4.06,1.18
4.066,-10.9,158.2,-0.5,-0.97,-4.01,1.23
4.068,10.9,166.2,5.5,-0.86,-4.11,1.19
4.07,-1.1,167,-7.2,-0.81,-4.12,1.28
4.072,10.7,176.9,-0.9,-0.91,-4.02,1.05
4.074,6.4,170.8,3.9,-1,-4.02,1.31
4.076,-27.6,165.2,4.3,-0.81,-3.93,1.27
4.078,-12.5,164.8,-2.8,-0.99,-4.11,1.13
4.08,-8.9,157.8,-5.3,-0.92,-3.94,1.29
4.082,3.4,167,5.1,-0.92,-4.06,1.1
4.084,-8.6,162.8,-0.5,-0.89,-3.94,1.31
4.086,-9.3,177.1,-6.1,-0.86,-4.1,1.05
4.088,-20.8,170,5.3,-0.97,-4.08,1.22
4.09,-4.4,167.5,13.7,-1.02,-4.04,1.04
4.092,1.4,174,4.4,-0.86,-3.9,1.36
4.094,1.2,183.2,-6.8,-0.96,-4.07,1.01
4.096,-9.7,167,1.8,-1.03,-3.85,1.08
4.098,3.7,182.8,-2,-0.89,-4.04,1.12
4.1,6,183.9,-8.5,-1.01,-3.9,1.15
4.102,-7.4,176.8,7.4,-0.79,-4.05,0.88
4.104,3,194,0.1,-0.92,-4,1.27
4.106,-1.8,185,4.5,-1.04,-4.06,1.16
4.108,4.9,166.3,-3.2,-0.88,-3.92,1.19
4.11,28.7,201.1,7.5,-0.96,-4.05,1.1
4.112,8.1,189.9,3.4,-1.04,-3.99,0.96
4.114,7.2,196.7,3.4,-1,-3.99,1.12
4.116,-4.4,216,1.1,-1.19,-4.04,1.13
4.118,3.2,161.2,-0.5,-0.98,-3.92,1.23
4.12,-16,165.8,-3.3,-0.95,-3.9,1.21
4.122,-4.4,183.1,1.1,-0.96,-4.11,1.22
4.124,-9,202,-3.4,-0.99,-3.96,1.22
4.126,11.5,177.7,5.7,-0.94,-3.93,1.13
4.128,-16.3,184,4.3,-0.97,-4.08,1.2
4.13,7.7,184.8,3.2,-0.91,-3.9,1.28
4.132,-16.7,183.1,-5.3,-1.16,-4.01,1.15
4.134,-0.8,208.2,9.9,-0.84,-3.88,1.38
4.136,-0.4,176.6,6.6,-1.06,-4.02,1.16
4.138,-23.2,189.6,-7.1,-0.89,-3.93,1.29
4.14,4.6,183.1,-3,-0.99,-4,0.9
4.142,0.6,185.2,-3,-0.92,-3.95,1.19
4.144,5.4,194.7,-4,-1.02,-3.99,1.17
4.146,-4.6,177.5,-7.5,-0.96,-3.98,1.04
4.148,0.2,176.2,4.7,-0.89,-3.99,1.01
4.15,-9.6,198.5,3.2,-0.87,-3.92,0.98
4.152,2.8,177.7,3.9,-1.03,-4.05,1.06
4.154,-0.2,177.8,4.2,-0.84,-4.03,0.95
4.156,5.1,194.2,1.1,-1.09,-4.19,1.01
4.158,-7.4,183.9,-2.5,-0.98,-3.94,1.19
4.16,-3.2,187.3,9.6,-0.89,-3.94,0.85
4.162,-3.9,184.1,0.8,-0.97,-3.89,1.24
4.164,-10.2,197.8,-2.1,-0.9,-4.1,1.01
4.166,-12.6,198.2,0.5,-1.1,-4.01,1.04
4.168,-3.7,184.5,3,-0.82,-3.79,1.08
4.17,9.7,191.5,-12.6,-0.98,-3.94,1.02
4.172,-13.5,172.9,-14.2,-1.12,-3.97,1.01
4.174,-12.8,181.7,9.5,-0.83,-3.84,1.02
4.176,-7.9,171.9,8.3,-1.01,-4.02,0.92
4.178,-6.1,188.3,-6.3,-0.88,-3.9,1.13
4.18,0.6,203.9,1.5,-0.99,-3.93,1.1
4.182,16,188.6,-3.7,-1,-3.87,1.2
4.184,-7.2,188,-9.7,-0.89,-3.96,1.1
4.186,-6.5,184.6,-18.2,-1.08,-3.78,1.04
4.188,2.9,182.6,12.5,-0.86,-3.88,1.16
4.19,-4.5,183.1,0.6,-0.76,-3.83,1.02
4.192,-0.5,193.4,-5.4,-0.98,-3.99,1.19
4.194,14.1,188.5,10.9,-0.74,-3.86,1.03
4.196,3.2,200.6,-13.8,-1.16,-4.12,1
4.198,-21.4,176.3,-23.6,-0.91,-3.85,1.16
4.2,-14.7,169.3,8.8,-0.91,-3.89,1.01
4.202,-10.6,194.6,7.4,-0.81,-3.91,1.03
4.204,-9.6,196.7,-0.5,-0.81,-4.04,1.05
4.206,-22.1,167.5,5.5,-0.92,-3.82,1.01
4.208,-1.2,195.6,9.5,-0.83,-3.94,1.24
4.21,1,206.1,-16.1,-1.03,-3.97,1.18
4.212,3.2,186,-14,-1,-3.98,1.11
4.214,15.2,214.8,8.5,-0.69,-3.94,1.41
4.216,-29.3,192.5,-3.5,-0.98,-3.96,1.06
4.218,-21.3,190.8,-2.3,-0.84,-3.83,1.15
4.22,-16.7,198.8,3,-0.95,-3.85,1.39
4.222,-7.9,202.4,10.6,-0.81,-3.87,1.14
4.224,19.3,204.6,-13.5,-0.79,-3.82,1.38
4.226,-0.9,182.9,-7,-0.91,-3.74,1.2
4.228,1.1,194.8,3.6,-0.77,-3.89,1.24
4.23,-8.6,197.5,1.8,-0.84,-3.86,1.27
4.232,-2.4,214.6,-5,-0.96,-3.9,1.19
4.234,-9.5,190.4,11.3,-0.62,-3.69,1.35
4.236,-0.4,198.1,-13.5,-0.85,-3.84,1.16
4.238,-17.2,200.7,-18.9,-0.72,-3.92,1.22
4.24,-8.9,208,-16.6,-0.6,-3.95,1.22
4.242,-18.6,211.6,6.3,-0.97,-3.94,1.27
4.244,-12.5,208.4,5.4,-0.75,-3.93,1.25
4.246,-3.1,207.9,-2.8,-0.77,-3.85,1.21
4.248,-6,196.9,10.9,-0.82,-3.78,1.28
4.25,-14.9,200.6,-9.2,-0.73,-3.92,1.1
4.252,-8.7,207.8,-10.4,-0.83,-3.82,1.29
4.254,-16.2,210.9,12.5,-0.92,-4.01,1.32
4.256,-23.6,216.5,7.7,-0.81,-3.89,1.19
4.258,-22.6,196.9,4.5,-0.93,-3.79,1.27
4.26,-4.5,211.4,-5.8,-0.77,-4.01,1.04
4.262,-3.9,208.3,4.9,-0.91,-3.91,1.39
4.264,2.1,215.9,-1.3,-0.94,-3.9,1.25
4.266,-16,203.4,-15.9,-0.84,-3.96,1.05
4.268,-13.5,202.5,3.4,-0.86,-3.91,1.1
4.27,-4.6,219,5.9,-0.91,-3.9,1.01
4.272,9.1,231.1,8.1,-0.88,-3.89,1.07
4.274,2.7,222.3,-2.3,-0.96,-3.97,1.04
4.276,-3.7,222.5,12,-0.99,-3.95,1.13
4.278,-11.2,225.4,-6.8,-0.82,-3.8,1.16
4.28,6.6,207.7,-0.5,-0.98,-3.84,0.97
4.282,-10.4,206,4.4,-0.78,-3.82,1.19
4.284,-3.2,219.7,7.8,-0.93,-3.92,1.03
4.286,8.9,224,-1.4,-0.78,-3.74,1.07
4.288,-9.7,215.9,-3.2,-0.93,-3.77,1.11
4.29,14.5,225.8,-3,-0.95,-3.81,1.04
4.292,-9,214.1,-0.2,-0.86,-3.74,1.07
4.294,-1,224.8,-4.9,-0.9,-3.9,1.19
4.296,-17.4,208.5,0.1,-0.72,-3.85,1.09
4.298,-3.6,209.9,0.1,-0.8,-3.88,1
4.3,-11.8,203,-9.6,-0.87,-3.86,0.89
4.302,-9,218.1,-2.1,-0.87,-3.77,1.09
4.304,-10.8,207.9,-1.6,-0.88,-3.82,0.89
4.306,-33,213.1,-5.3,-0.88,-3.81,1.05
4.308,-2.3,219.1,-11.3,-1,-3.93,1.13
4.31,-19.6,207.4,-7.6,-0.88,-3.91,0.94
4.312,-17.6,213.8,-2.8,-0.79,-3.78,1.15
4.314,1.3,213.5,1.5,-0.86,-3.98,0.84
4.316,6.5,204.6,-2.9,-0.78,-3.78,1.04
4.318,-4.5,201.6,-4.4,-0.94,-3.84,1.09
4.32,1,228.1,-3.1,-0.73,-3.94,1.01
4.322,-9.4,221.9,-7.8,-1,-3.86,0.9
4.324,-4.6,212.7,-3.4,-0.92,-3.89,1.06
4.326,-0.2,213,2,-1.04,-3.85,0.81
4.328,-8.7,205.6,-4.3,-0.88,-3.77,1.03
4.33,-23,210,-6.1,-0.89,-3.76,0.87
4.332,-15.3,217,4.1,-0.87,-3.82,1.1
4.334,0.9,207.6,5.6,-0.88,-3.75,0.68
4.336,-2.5,217.9,-14.2,-0.72,-3.79,0.92
4.338,-6.4,197.1,-9.4,-0.7,-3.68,1
4.34,-30.2,193.8,-4.5,-0.86,-3.73,0.98
4.342,-3.8,208.1,0.6,-0.8,-3.87,1.03
4.344,-10.8,212.3,-1.1,-0.84,-3.8,0.85
4.346,-3.2,209.2,-2.8,-0.79,-3.74,1.22
4.348,6.3,216.7,0.8,-0.73,-3.92,0.87
4.35,-1.8,205,-10.1,-0.89,-3.87,0.93
4.352,-3.7,225.1,-4.8,-0.76,-3.74,1.09
4.354,-21.1,192.9,2.9,-0.68,-3.68,1.07
4.356,3.8,211.4,-1.1,-0.67,-3.83,1.01
4.358,-4.8,202,1.5,-0.81,-3.82,1.23
4.36,0.2,203.5,0.4,-0.78,-3.79,0.97
4.362,-3.2,216.7,-1.9,-0.62,-3.64,1.2
4.364,-11.6,200.2,-4,-0.83,-3.81,0.82
4.366,-4.9,203.4,-8.2,-0.71,-3.86,1.1
4.368,7,212.8,1.5,-0.62,-3.79,0.85
4.37,-2.7,199.2,0.3,-0.88,-3.9,1.08
4.372,0.3,214.9,-5.3,-0.7,-3.8,1
4.374,3.5,194.3,1.7,-0.79,-3.81,0.93
4.376,3.2,202.7,1.3,-0.85,-3.78,0.95
4.378,-16.3,200.6,-3.7,-0.73,-3.7,1.02
4.38,-16.7,198,4.1,-0.78,-3.88,0.83
4.382,-4,189.8,1.2,-0.87,-3.68,1.21
4.384,1,210.8,7.1,-0.76,-3.78,1
4.386,-5.3,214.4,-2.5,-0.84,-3.84,1.17
4.388,2.9,208.3,-2.5,-0.76,-3.67,1.06
4.39,-14.8,204.5,-7.7,-0.81,-3.75,1.09
4.392,3.2,216.5,-1.6,-0.67,-3.75,1.04
4.394,-0.1,202.1,7.8,-0.68,-3.7,1.1
4.396,-5.5,215.7,4.7,-0.72,-3.65,1.1
4.398,-3.9,206.2,-8,-0.72,-3.78,1.24
4.4,4.4,210.8,-6.7,-0.64,-3.76,1.07
4.402,-10.9,200.2,-2.4,-0.78,-3.81,1.44
4.404,7.3,218.1,3.2,-0.74,-3.72,1.11
4.406,-9.9,221.4,-0.6,-0.59,-3.6,1.14
4.408,-8.1,215.2,4.1,-0.79,-3.74,1.12
4.41,1.8,223.3,3.4,-0.79,-3.8,1.1
4.412,7.1,223.2,0.1,-0.77,-3.67,1.17
4.414,-8.9,229.7,-1.3,-0.76,-3.93,1.07
4.416,0.9,226.1,-3.1,-0.82,-3.85,1.13
4.418,1.1,211.8,-1,-0.67,-3.82,1.07
4.42,-2,212.4,6.7,-0.77,-3.6,1.14
4.422,-3,211.2,3.6,-0.75,-3.85,0.99
4.424,19.1,229.4,1.8,-0.58,-3.8,1.09
4.426,-8.9,213,0.4,-0.9,-3.84,0.88
4.428,-16.5,198.3,1.1,-0.68,-3.64,1.23
4.43,-14.1,205.4,-6.7,-0.76,-3.75,1.05
4.432,-7.2,210.5,-3.5,-0.86,-3.72,0.96
4.434,1.8,217.7,3.3,-0.67,-3.77,1.32
4.436,-5.9,214.6,5.4,-0.91,-3.75,0.93
4.438,-14.5,199.3,-4.7,-0.91,-3.85,1.23
4.44,-14.2,217.1,-4.8,-0.69,-3.59,1.03
4.442,-15,206.7,-2.3,-0.93,-3.64,1.07
4.444,0.8,215.7,3.6,-0.57,-3.75,1.04
4.446,-15.8,214.6,0,-0.61,-3.72,0.94
4.448,-12,223.1,10,-0.94,-3.69,1.04
4.45,-7,226.8,3.3,-0.68,-3.73,1.11
4.452,-7.9,215.8,-5.8,-0.72,-3.61,0.99
4.454,13.6,239.3,-5.4,-0.75,-3.79,1.07
4.456,11,235.1,11.3,-0.75,-3.6,0.97
4.458,-12.8,220,0.9,-0.85,-3.75,1.14
4.46,-12.3,224.2,6.4,-0.79,-3.8,0.98
4.462,5.1,221,-0.7,-0.67,-3.66,1.16
4.464,-14.4,219,2.7,-0.8,-3.75,1.03
4.466,-15.8,222.2,-6.1,-0.75,-3.72,0.97
4.468,-0.1,213.6,-5.8,-0.74,-3.61,1.24
4.47,-12.8,207.8,1.2,-0.85,-3.73,1.06
4.472,-18.5,220.7,6.9,-0.74,-3.63,0.99
4.474,-14.4,225.4,-2.5,-0.76,-3.64,1.22
4.476,-8.6,215.2,-3.3,-0.95,-3.71,0.92
4.478,-22.6,218.6,1.1,-0.82,-3.69,1.01
4.48,0.4,222.6,-2.4,-0.82,-3.67,1.09
4.482,-10.3,213.4,4.5,-0.77,-3.76,0.94
4.484,-9.4,208.2,-1.4,-0.83,-3.79,0.93
4.486,-6.2,205.8,2.2,-0.83,-3.57,1.05
4.488,-0.4,213,1.8,-0.95,-3.75,1.06
4.49,-31.7,225.4,-6.6,-0.86,-3.65,0.92
4.492,6.6,233.1,-4,-0.83,-3.71,0.95
4.494,1,205.5,-2.3,-0.75,-3.68,0.96
4.496,-19.9,216.6,-2.8,-0.77,-3.57,0.95
4.498,-3.4,213.2,-1.9,-0.79,-3.87,0.82
4.5,-20,215.8,-7.5,-0.81,-3.51,0.92
4.502,-11.1,212.8,-1.8,-0.92,-3.73,0.89
4.504,-9.5,214.2,-0.7,-0.75,-3.63,0.95
4.506,-8.4,219.8,-4.3,-0.8,-3.75,0.96
4.508,7.7,229.1,0.6,-0.84,-3.67,0.95
4.51,18.1,238.8,3.3,-0.66,-3.68,0.95
4.512,-15.2,196,-9.1,-0.89,-3.66,1.08
4.514,-1.7,208.1,-6.4,-0.77,-3.63,0.98
4.516,-3.7,216.7,-3.7,-0.66,-3.55,0.94
4.518,-9.5,208,0.2,-0.74,-3.65,0.99
4.52,0.9,222.3,-3.9,-0.79,-3.6,0.98
4.522,-13.7,224.1,-1.5,-0.84,-3.7,0.98
4.524,-19.7,196.9,-4.4,-1.01,-3.74,0.92
4.526,-5.6,211.8,-5.8,-0.74,-3.55,1.09
4.528,-16.7,216.2,0.1,-0.87,-3.63,0.89
4.53,-7.2,212.5,-0.4,-0.76,-3.63,0.94
4.532,-17.9,212.3,-1.6,-0.81,-3.66,1.06
4.534,-15.2,213.2,-3.7,-0.81,-3.63,1.06
4.536,-25.3,196.2,-2.8,-0.68,-3.62,1
4.538,-18.1,205,-7.9,-0.77,-3.58,1.09
4.54,-21.2,205.4,-3.4,-0.75,-3.61,0.95
4.542,-24.2,195.5,-0.4,-0.74,-3.55,1.08
4.544,-14.3,215.6,-2.1,-0.91,-3.72,0.88
4.546,-13.7,220,-8.8,-0.71,-3.53,1.04
4.548,8.7,223.1,-3.6,-0.79,-3.69,0.9
4.55,-20,201.4,-4,-0.73,-3.66,0.98
4.552,-16,226.9,-11.2,-0.62,-3.59,0.96
4.554,-16.6,222.9,-12.9,-0.84,-3.64,1.06
4.556,-4.8,211.1,6.2,-0.73,-3.44,1.2
4.558,10.9,225.3,7.1,-0.74,-3.63,0.86
4.56,-13.5,223.7,-13.3,-0.67,-3.67,1.05
4.562,-7.7,220.3,-9.3,-0.68,-3.44,1.05
4.564,-2,205.5,-6.8,-0.63,-3.54,0.69
4.566,-2.4,222.7,-6.8,-0.79,-3.62,1.16
4.568,-10.5,202.9,-5.8,-0.75,-3.59,0.94
4.57,-3.7,198.8,5.1,-0.61,-3.55,0.98
4.572,-16.8,219.8,-0.4,-0.77,-3.6,1.02
4.574,-7.6,220.2,-9.1,-0.65,-3.59,0.8
4.576,4.7,209.2,-4.4,-0.76,-3.59,1.09
4.578,8.3,224.8,-2.8,-0.72,-3.73,1
4.58,-17,207.4,-9.2,-0.63,-3.62,1.04
4.582,-16,194.2,-4.7,-0.69,-3.62,1.04
4.584,-12.5,214.2,-4.7,-0.61,-3.51,1.01
4.586,0.5,215.3,-5.7,-0.67,-3.71,1.01
4.588,1.6,217.4,-8.2,-0.75,-3.59,1.1
4.59,-19.4,218.4,-8.3,-0.68,-3.67,0.97
4.592,-12.6,211.4,-6.8,-0.72,-3.64,1.01
4.594,-2.8,222.4,-7.8,-0.69,-3.55,1.02
4.596,-5.8,222,-6.3,-0.66,-3.57,0.92
4.598,-1.8,222.3,0.6,-0.72,-3.61,1.1
4.6,3.7,229.8,-3.5,-0.68,-3.53,0.93
4.602,-12.8,220.5,-6.9,-0.59,-3.6,1.25
4.604,-3.9,212.8,-0.5,-0.58,-3.44,0.94
4.606,7,222.7,-4,-0.69,-3.6,1.03
4.608,-18.3,229.1,-7.2,-0.61,-3.47,1.07
4.61,-7.2,217.5,-2.8,-0.73,-3.56,0.71
4.612,-4.7,223.7,0.1,-0.63,-3.49,1.1
4.614,1.7,239.4,-11.4,-0.57,-3.42,0.91
4.616,11.6,232.8,-7.7,-0.65,-3.53,1.13
4.618,-18.5,214.6,-2.8,-0.58,-3.56,0.99
4.62,-16.7,235,-9.4,-0.74,-3.56,1.04
4.622,8.8,214.9,3.2,-0.56,-3.58,0.93
4.624,-10.1,220.8,-0.7,-0.68,-3.53,1.01
4.626,-13.4,224.8,-0.2,-0.62,-3.4,1.08
4.628,-13.4,227.9,-6.7,-0.47,-3.46,1.08
4.63,1.2,228.4,-1.3,-0.75,-3.63,1.08
4.632,0.1,241.1,1.3,-0.47,-3.54,1
4.634,-9,220.1,-10.3,-0.67,-3.53,1.02
4.636,-17,218.4,-4.4,-0.73,-3.52,0.95
4.638,-10.3,232.1,1.1,-0.57,-3.47,1
4.64,-2.3,235.8,-8.9,-0.65,-3.49,1.02
4.642,-9.3,206,-3.3,-0.6,-3.49,0.9
4.644,-25.4,222.5,1.7,-0.59,-3.41,0.95
4.646,-15.9,224.1,-13.2,-0.67,-3.5,0.84
4.648,-5.8,227.9,-4.4,-0.53,-3.3,0.99
4.65,2.3,220.9,5.3,-0.65,-3.39,1.07
4.652,-12.6,223,1.1,-0.7,-3.49,1.08
4.654,-18.8,236.5,-7.3,-0.62,-3.42,0.94
4.656,-3.8,234,7.2,-0.59,-3.48,1.05
4.658,6.6,234.4,-4.4,-0.72,-3.38,1.08
4.66,-7.1,228.7,-8.9,-0.55,-3.38,0.88
4.662,-18.2,219.1,-14.2,-0.56,-3.34,0.99
4.664,-11.4,224.4,6.7,-0.77,-3.36,0.96
4.666,-16.3,237.5,-1.8,-0.61,-3.41,1.05
4.668,-11.1,229.6,-6.9,-0.78,-3.55,1.02
4.67,1.4,233.1,3.5,-0.63,-3.47,0.95
4.672,-3.4,231.1,-4.7,-0.59,-3.39,1.07
4.674,-0.4,238.7,-8.6,-0.58,-3.44,1.01
4.676,-28.3,226.2,6,-0.65,-3.36,0.91
4.678,-1.4,229.3,7.2,-0.71,-3.39,0.91
4.68,3.6,229.4,7.4,-0.6,-3.36,0.8
4.682,-5.8,231.7,0.4,-0.77,-3.31,0.97
4.684,-10,230.3,1.8,-0.65,-3.31,0.91
4.686,-9.1,247.4,-8.3,-0.62,-3.33,0.99
4.688,-0.5,242,-9.5,-0.78,-3.32,1.05
4.69,-14.1,235.3,4.2,-0.52,-3.29,0.89
4.692,-13.8,229.8,-0.5,-0.63,-3.37,0.98
4.694,-17.9,228.7,-3.7,-0.65,-3.35,0.99
4.696,-13.1,233.8,0.8,-0.55,-3.37,0.84
4.698,-6.5,225.8,6.5,-0.73,-3.33,0.86
4.7,1.3,225.1,-8.8,-0.58,-3.28,0.97
4.702,-11.1,234.5,-11.9,-0.72,-3.24,1.07
4.704,-11.5,225.1,4.8,-0.58,-3.41,1.09
4.706,-2.3,238.2,-0.5,-0.6,-3.28,0.94
4.708,-1.6,229.3,3.5,-0.51,-3.25,0.99
4.71,-2.9,235.5,7.6,-0.58,-3.23,0.69
4.712,-8.1,243.2,-15.3,-0.76,-3.36,0.92
4.714,-7.7,224.4,-14.9,-0.64,-3.29,0.83
4.716,-6.4,221.1,-4.7,-0.58,-3.24,0.94
4.718,-16.7,220.6,-3.7,-0.68,-3.23,0.89
4.72,-15.6,227.8,0.6,-0.66,-3.24,0.93
4.722,-13.1,224.7,4.6,-0.77,-3.29,0.79
4.724,2.5,233.1,6.5,-0.68,-3.27,0.73
4.726,9.1,232.8,-7.3,-0.63,-3.24,0.75
4.728,-5.1,231.6,-10.6,-0.61,-3.16,0.84
4.73,-8.5,238.5,2.1,-0.75,-3.3,1.03
4.732,-6.9,231.2,-0.3,-0.51,-3.19,0.83
4.734,-11.6,220.2,-4.7,-0.72,-3.21,0.84
4.736,-8.3,228.2,-0.9,-0.67,-3.18,0.78
4.738,-11.9,217.7,6.9,-0.72,-3.19,0.98
4.74,-2.5,225.5,-4.3,-0.63,-3.24,0.77
4.742,-21.9,226.1,-10.9,-0.56,-3.16,0.98
4.744,-13.8,208.4,0.6,-0.72,-3.09,1.06
4.746,-3.7,228.9,0.1,-0.64,-3.15,0.88
4.748,-5.9,217.4,-2.3,-0.57,-2.96,0.92
4.75,-20.6,219.8,0.6,-0.68,-3.07,0.98
4.752,-10.9,216.5,3.6,-0.42,-3.07,0.94
4.754,-8.6,223.7,-12.4,-0.46,-3.1,0.89
4.756,-9.7,226.9,-10.7,-0.49,-3.07,0.96
4.758,-19.1,222.9,-1.2,-0.64,-3.14,1
4.76,5.2,240,-7.5,-0.55,-3.09,0.84
4.762,8,243.8,-1.9,-0.65,-3.09,0.92
4.764,6.5,231,-1.2,-0.58,-3.02,1.05
4.766,6.2,218.1,-2.4,-0.67,-3.1,0.87
4.768,-21.8,221.4,-11.9,-0.55,-3.04,1.13
4.77,-12.1,219,-1.3,-0.66,-2.97,0.9
4.772,0.9,229.3,0,-0.58,-3.03,1.01
4.774,10.9,232.9,-1.9,-0.64,-2.93,0.95
4.776,-2.5,233.5,0.7,-0.62,-3.07,1
4.778,0,221.9,-8.7,-0.6,-2.96,0.95
4.78,-12.8,217.4,-4.9,-0.59,-2.87,0.95
4.782,7.8,228.6,2.3,-0.62,-2.99,0.91
4.784,5.2,226.5,-0.2,-0.54,-2.82,1
4.786,-6.7,230.2,-8.1,-0.65,-2.96,0.81
4.788,-15.1,213.1,-4.7,-0.71,-3.03,0.96
4.79,-5.8,231.2,3.9,-0.62,-2.9,0.83
4.792,-7.4,233.1,-3.5,-0.66,-3.05,0.89
4.794,-20.3,220,-6.1,-0.51,-2.82,0.92
4.796,-2.5,236.2,-0.4,-0.69,-2.81,1.18
4.798,-9.8,231.9,-4.2,-0.61,-2.99,0.93
4.8,-4.6,229.2,-7.9,-0.59,-2.8,1.08
4.802,-19.2,229,-0.3,-0.62,-3.04,0.92
4.804,-4.7,228.6,2.5,-0.58,-2.87,1.14
4.806,-2,242.2,-4.7,-0.62,-2.94,0.94
4.808,-8.5,244,1.4,-0.57,-2.83,0.92
4.81,-2,231.9,2.1,-0.59,-2.9,1.01
4.812,0.8,227.5,-3.4,-0.47,-2.97,0.91
4.814,4.2,242.6,-7.4,-0.59,-3,1.14
4.816,-5.4,225.3,-5.1,-0.66,-3.04,0.99
4.818,-6.6,238.2,0.6,-0.54,-2.91,1.09
4.82,0.8,243.3,-1.3,-0.68,-2.97,0.82
4.822,2.6,242.6,-2.1,-0.6,-2.94,1.03
4.824,-0.1,240.8,4.2,-0.48,-2.99,1.07
4.826,-4.4,236.3,-4.7,-0.54,-3,1.03
4.828,1.1,233.8,0.8,-0.68,-2.98,1.07
4.83,3.5,245.9,-8.6,-0.38,-2.9,1.06
4.832,-0.5,228.7,-6.5,-0.6,-2.97,0.8
4.834,-23.3,230.2,1.6,-0.55,-2.93,1.05
4.836,-11.1,243.5,0.1,-0.61,-2.92,0.86
4.838,-3.2,227.2,-7,-0.65,-3.02,1.08
4.84,-3.1,246.5,-3.2,-0.45,-2.75,0.97
4.842,-9.8,236.3,-5.1,-0.58,-3,0.91
4.844,-14.1,230.9,-1.3,-0.64,-2.93,1.05
4.846,-8.6,249.2,-7.2,-0.48,-2.89,0.89
4.848,-13.1,235.9,3.5,-0.7,-2.88,0.9
4.85,-8.8,226.5,2.5,-0.6,-3,0.84
4.852,-20.7,219.7,-16.7,-0.74,-2.95,0.81
4.854,1.1,246,-0.9,-0.72,-3,0.86
4.856,-14.5,238.4,-2.1,-0.49,-2.81,1.04
4.858,-3.5,246.2,-3.4,-0.69,-2.93,0.96
4.86,-6.6,234.2,5.5,-0.57,-2.76,0.83
4.862,-8.8,227,4,-0.65,-2.86,0.82
4.864,-6.5,248.6,2.5,-0.58,-2.85,1.02
4.866,-8.3,250.1,-10.2,-0.51,-2.82,0.93
4.868,-5.4,232.7,-3.7,-0.48,-2.78,0.97
4.87,-25.7,231.6,-5.6,-0.72,-2.78,0.95
4.872,-3.5,238.9,-2.6,-0.56,-2.81,0.93
4.874,-2.1,223.6,-1.9,-0.69,-2.93,0.81
4.876,-12.1,241.5,-3.5,-0.66,-2.8,0.94
4.878,0.2,244.7,-7.5,-0.35,-2.87,0.96
4.88,-9.1,232.8,-1.2,-0.69,-2.82,0.79
4.882,-11.6,236.9,-7.7,-0.69,-2.81,1.08
4.884,-18.4,229.5,1.5,-0.5,-2.71,0.86
4.886,-7.9,241.2,-0.1,-0.66,-2.85,0.98
4.888,-9,230,0,-0.65,-2.8,0.88
4.89,-6.2,248.1,-6.8,-0.75,-2.79,0.92
4.892,3.2,254.3,-2.6,-0.43,-2.73,0.97
4.894,-4.1,233.3,-6.8,-0.64,-2.79,0.91
4.896,-9.5,238.1,-1.6,-0.6,-2.75,0.79
4.898,-12.4,242.9,-2.4,-0.68,-2.78,0.86
4.9,-3.2,232.6,2.4,-0.57,-2.76,0.79
4.902,-0.9,241.5,-8.9,-0.61,-2.84,0.78
4.904,-12.4,232.2,-5.2,-0.62,-2.76,0.73
4.906,-16.3,238.9,2.3,-0.55,-2.76,0.82
4.908,-4.2,238.9,3.9,-0.66,-2.82,0.85
4.91,-0.1,239.9,-1.2,-0.71,-2.75,0.86
4.912,-7.3,239.8,2.2,-0.61,-2.74,0.9
4.914,-9.4,238.1,-13.2,-0.76,-2.74,0.74
4.916,-1.8,238.5,-14,-0.62,-2.7,0.99
4.918,-7.7,243.1,-17.3,-0.54,-2.69,0.73
4.92,-26.1,224.2,-2.3,-0.66,-2.81,0.99
4.922,-18.9,226.8,0.1,-0.51,-2.66,0.88
4.924,-12,236.3,-8.9,-0.59,-2.74,0.78
4.926,-0.9,235.8,2.6,-0.55,-2.74,0.94
4.928,2.9,239.1,-10.5,-0.64,-2.86,0.65
4.93,-8,228.4,-15.4,-0.61,-2.75,0.93
4.932,-15.4,227.3,3.7,-0.64,-2.77,0.76
4.934,-19.8,222.6,-0.9,-0.49,-2.71,0.76
4.936,-16.5,228.6,-4.9,-0.58,-2.82,0.88
4.938,-9.7,237,-3.6,-0.54,-2.81,0.86
4.94,-0.3,235.8,1.8,-0.54,-2.78,0.84
4.942,3.7,237.3,-7,-0.6,-2.66,0.91
4.944,-14.4,220.9,-14.2,-0.65,-2.81,0.79
4.946,-14.2,220.5,0.1,-0.78,-2.78,0.86
4.948,-7.7,226.5,2.4,-0.59,-2.78,0.71
4.95,3.1,238.3,-0.9,-0.54,-2.69,0.91
4.952,-10.7,232.4,-6,-0.61,-2.78,0.81
4.954,-12.1,225.7,-1.3,-0.69,-2.78,0.82
4.956,-8.1,238.9,-10.3,-0.63,-2.73,0.8
4.958,-8.6,235.2,-14.1,-0.47,-2.86,0.82
4.96,-14,227.2,-2.2,-0.5,-2.79,0.75
4.962,5.5,232.6,1.6,-0.76,-2.73,0.88
4.964,-0.3,234.3,-2.6,-0.4,-2.63,0.91
4.966,4.3,238.7,2.8,-0.61,-2.75,0.9
4.968,-9.5,235.2,-8.8,-0.48,-2.65,0.75
4.97,-12.1,229.1,-15,-0.51,-2.65,0.96
4.972,3.7,232.9,-11.8,-0.58,-2.85,0.85
4.974,-5.5,227.7,5.3,-0.4,-2.64,0.84
4.976,-5.7,230.3,0.5,-0.6,-2.75,1.09
4.978,-16.6,227.9,-14.5,-0.62,-2.77,0.86
4.98,-2.5,227.7,-2.8,-0.68,-2.67,1.05
4.982,2,232.1,-9.7,-0.38,-2.73,0.93
4.984,-17.6,229.9,-13.8,-0.55,-2.68,0.85
4.986,-14.2,239.1,5.6,-0.55,-2.74,0.91
4.988,-2.8,240.2,3.4,-0.48,-2.61,0.88
4.99,-11.5,237.7,4.6,-0.56,-2.76,0.92
4.992,-7.2,240.6,-9.8,-0.5,-2.66,0.85
4.994,10.8,244.8,3.1,-0.53,-2.77,0.86
4.996,-3,237.3,-9.8,-0.54,-2.69,0.81
4.998,-17,237,-14.9,-0.63,-2.64,0.89
5,3.7,234.9,10.9,-0.44,-2.64,0.78
5.002,-5.5,231.8,4,-0.61,-2.62,0.91
5.004,0.9,234.7,-7.9,-0.59,-2.7,0.83
5.006,-14.4,239.8,-8.6,-0.36,-2.63,0.9
5.008,0.2,235.9,-1.9,-0.65,-2.61,0.92
5.01,-4.9,235.5,-7.7,-0.57,-2.74,0.77
5.012,-7.2,241.9,-16.1,-0.54,-2.66,1.04
5.014,-17,233.3,4.4,-0.63,-2.83,0.85
5.016,1.6,248.8,0.1,-0.47,-2.68,0.91
5.018,-4.6,231,-4.4,-0.59,-2.74,0.79
5.02,2.8,249.5,2,-0.62,-2.77,0.85
5.022,-6.2,254.5,-6.2,-0.46,-2.64,0.98
5.024,-8.7,228.6,-12.1,-0.76,-2.77,0.76
5.026,-9.5,243.1,-13.1,-0.44,-2.58,0.85
5.028,-9.4,252.9,-0.2,-0.59,-2.59,1.07
5.03,-13.9,227.2,-0.2,-0.64,-2.65,0.87
5.032,-5.5,229.7,-7.2,-0.36,-2.58,1.02
5.034,-8.8,242.5,-1.5,-0.77,-2.73,0.89
5.036,-1.5,231.8,-3.3,-0.32,-2.54,0.79
5.038,-9.9,246.2,-12,-0.62,-2.69,0.88
5.04,2,255,3.7,-0.57,-2.62,0.89
5.042,-12.4,233.5,-2.9,-0.46,-2.68,0.97
5.044,-0.1,245.9,-3.8,-0.65,-2.63,0.77
5.046,-9,251.5,-3,-0.57,-2.55,0.97
5.048,-9.8,244,0.6,-0.45,-2.56,0.8
5.05,1.6,245.6,-4.7,-0.64,-2.61,0.93
5.052,-4.1,250,-8.1,-0.44,-2.65,0.87
5.054,-6.7,238.1,-0.2,-0.51,-2.56,0.97
5.056,-11.2,237.5,3.4,-0.55,-2.64,1.04
5.058,-14,239.9,-2.3,-0.42,-2.53,0.98
5.06,0.8,248.8,3.3,-0.57,-2.64,0.95
5.062,-7.9,241.5,-0.8,-0.6,-2.65,1.03
5.064,-19.6,237.7,-7.9,-0.57,-2.67,0.74
5.066,-4.2,243.1,-12.5,-0.64,-2.65,0.97
5.068,-8.9,247.2,-0.4,-0.52,-2.52,0.92
5.07,-9.6,249.5,-0.5,-0.48,-2.58,0.77
5.072,-13.6,237.5,-1.5,-0.53,-2.6,0.96
5.074,-9.8,243.9,1.5,-0.44,-2.41,0.79
5.076,-16.1,228.6,-11.2,-0.56,-2.57,0.92
5.078,-20.9,248.6,-12.8,-0.54,-2.51,0.77
5.08,-1.4,243.8,-10.7,-0.52,-2.54,0.81
5.082,-10.5,244.6,-3.2,-0.49,-2.6,0.74
5.084,-11.7,250.6,-10.5,-0.57,-2.59,0.79
5.086,0.8,245.7,7.4,-0.63,-2.67,0.86
5.088,3.1,241.8,14.4,-0.64,-2.57,0.75
5.09,-14.7,239.8,-8.9,-0.51,-2.61,0.9
5.092,-10.5,248,-7.5,-0.59,-2.61,0.74
5.094,-0.1,246.8,3.8,-0.58,-2.67,0.78
5.096,-11.2,228.8,-3.8,-0.48,-2.68,0.64
5.098,-15.3,229.6,-2.7,-0.5,-2.6,0.84
5.1,0.5,243.3,1.7,-0.52,-2.67,0.79
5.102,-7.7,248.6,-0.2,-0.43,-2.62,0.86
5.104,-4.6,248.2,-3.3,-0.57,-2.71,0.83
5.106,-4.7,247.5,-1.9,-0.52,-2.52,0.81
5.108,-17.4,234.8,-4.2,-0.58,-2.57,0.87
5.11,-13.5,238,-2.3,-0.52,-2.59,0.78
5.112,-13.9,237.3,-3.3,-0.5,-2.7,0.76
5.114,-9.2,238.8,-2.1,-0.5,-2.62,0.76
5.116,-14.7,239.5,-6,-0.53,-2.58,0.73
5.118,-12.2,247.2,-9.6,-0.43,-2.53,0.81
5.12,-9.5,245.6,-3.5,-0.49,-2.59,0.76
5.122,-9.2,223.5,-7,-0.53,-2.58,0.9
5.124,-3.4,245.1,-5.1,-0.64,-2.66,0.64
5.126,-8.6,234.6,4.7,-0.43,-2.53,0.88
5.128,-4.8,243,-6,-0.55,-2.51,0.9
5.13,-10,236.5,-5.6,-0.39,-2.53,0.94
5.132,-10.7,241.4,-6.1,-0.46,-2.48,0.9
5.134,-10.7,235.7,-1.6,-0.5,-2.44,0.9
5.136,-8.8,244.7,-8.9,-0.56,-2.41,0.79
5.138,-5,242.2,-5.3,-0.48,-2.53,0.88
5.14,-3.5,249.2,-0.9,-0.47,-2.54,0.69
5.142,-2.3,248.7,-0.2,-0.52,-2.51,0.94
5.144,-3.6,232.5,-5.1,-0.38,-2.5,0.75
5.146,-10.2,246.4,-5,-0.42,-2.53,0.75
5.148,-16.1,239.6,-7.3,-0.56,-2.45,0.78
5.15,-10.2,235.1,-3.5,-0.37,-2.43,0.86
5.152,-13,235.9,-4.4,-0.58,-2.53,0.63
5.154,-5.5,237.2,-4.4,-0.47,-2.63,0.82
5.156,-9.7,239.3,-7.6,-0.52,-2.49,0.75
5.158,-10.7,244.3,-7.1,-0.6,-2.53,0.72
5.16,-2.4,240.1,1.2,-0.42,-2.45,0.78
5.162,-4.8,235.2,-8.1,-0.52,-2.45,0.79
5.164,-8.8,244.3,-12.6,-0.59,-2.53,0.72
5.166,-12.3,235,-2.7,-0.46,-2.44,0.81
5.168,-16.3,234.5,-11.1,-0.64,-2.56,0.76
5.17,-15.6,242,0.3,-0.48,-2.45,0.89
5.172,1,240.7,2.9,-0.48,-2.51,0.68
5.174,-3.5,243.9,1.4,-0.56,-2.58,0.85
5.176,-20.2,233.8,-8.5,-0.34,-2.46,0.66
5.178,-7.2,245.4,-0.5,-0.55,-2.4,0.97
5.18,-0.4,253,-5.1,-0.47,-2.48,0.84
5.182,-7.7,234.9,-6.5,-0.42,-2.47,0.83
5.184,-13.6,238,1.5,-0.42,-2.47,0.84
5.186,-18.3,236.7,5,-0.44,-2.42,0.82
5.188,-4,241.1,-5.7,-0.43,-2.43,0.84
5.19,-12.2,236.8,-7.3,-0.4,-2.31,0.92
5.192,-12.8,243.4,2.1,-0.48,-2.48,0.69
5.194,-7.1,241.8,-4.8,-0.44,-2.42,0.92
5.196,-5.3,245.4,-6.7,-0.47,-2.46,0.81
5.198,-8.2,248.9,4.6,-0.38,-2.4,0.78
5.2,-13.5,233.6,4.3,-0.37,-2.37,1.08
5.202,-6.7,243.9,-5,-0.58,-2.45,0.82
5.204,0.4,239.9,0.4,-0.38,-2.41,1.08
5.206,0.1,236.8,-5.8,-0.53,-2.6,0.64
5.208,-1.6,243.6,0.4,-0.39,-2.42,0.87
5.21,-13.9,242.5,-7.9,-0.44,-2.35,0.87
5.212,-8.1,248.1,4.2,-0.44,-2.39,0.77
5.214,2.8,242.9,4.6,-0.44,-2.42,0.85
5.216,-1.1,242.3,-2,-0.37,-2.4,0.68
5.218,0,250.6,0.1,-0.55,-2.5,0.86
5.22,-4.1,239.5,-2.8,-0.46,-2.42,0.82
5.222,-11.1,248.3,-3.5,-0.6,-2.38,0.75
5.224,0.1,250,4.1,-0.57,-2.42,0.84
5.226,-4.9,233.3,2.2,-0.61,-2.47,0.73
5.228,-19.8,235.2,-0.2,-0.49,-2.37,0.76
5.23,-9,239.7,-0.6,-0.45,-2.37,0.9
5.232,-2.1,245.8,-0.7,-0.57,-2.38,0.66
5.234,-3.6,242.1,-3.9,-0.53,-2.39,0.76
5.236,-8.8,239.8,-3.5,-0.39,-2.39,0.82
5.238,-6.4,242.9,-1.4,-0.58,-2.38,0.65
5.24,-10.5,230.2,-0.2,-0.48,-2.47,0.77
5.242,-12.9,252.2,-3.3,-0.55,-2.37,0.76
5.244,-4,237.1,2.2,-0.56,-2.47,0.91
5.246,-0.6,242.6,8.8,-0.34,-2.41,0.81
5.248,-10.8,238.9,-4.9,-0.53,-2.27,0.84
5.25,1.4,237.1,-1.4,-0.52,-2.42,0.87
5.252,-3.3,242.3,5.3,-0.57,-2.33,0.81
5.254,-2.5,233.4,0.4,-0.52,-2.42,0.77
5.256,1.1,230.3,-4.2,-0.55,-2.3,0.87
5.258,-5.6,241.9,-2.6,-0.53,-2.4,0.79
5.26,1.1,244.2,-0.9,-0.58,-2.37,0.73
5.262,-11.4,226.3,-2,-0.49,-2.32,0.86
5.264,-17.9,235.5,0.3,-0.55,-2.36,0.79
5.266,-6.9,234.3,-3.1,-0.39,-2.27,0.83
5.268,-8.5,229.6,-4.5,-0.55,-2.31,0.8
5.27,-9.1,239.8,-0.9,-0.53,-2.38,0.83
5.272,-6.7,227.3,-1.8,-0.42,-2.33,0.83
5.274,1.3,243.1,-2.8,-0.6,-2.44,0.63
5.276,-3.9,239.1,-1.9,-0.51,-2.36,0.66
5.278,-15.4,235.4,-2.5,-0.56,-2.43,0.49
5.28,-1.9,236.7,-3.9,-0.54,-2.42,0.66
5.282,-11.1,232.6,-6.4,-0.67,-2.38,0.76
5.284,-4.2,236.6,0,-0.46,-2.32,0.72
5.286,-0.4,238.5,-2.1,-0.56,-2.32,0.64
5.288,-13.9,236.4,-5.3,-0.58,-2.3,0.87
5.29,-3.7,237,-1.4,-0.55,-2.28,0.69
5.292,-7.9,225.7,-4.7,-0.61,-2.27,0.77
5.294,7,248.3,5,-0.58,-2.32,0.68
5.296,-4.1,243.4,0,-0.38,-2.18,0.71
5.298,-3.2,233.6,-2.3,-0.58,-2.31,0.88
5.3,-4.1,248.8,-0.7,-0.48,-2.14,0.58
5.302,-1.3,235.6,-2.7,-0.58,-2.36,0.9
5.304,-7.3,234,-7,-0.47,-2.3,0.78
5.306,-7.9,225.7,2.3,-0.4,-2.3,0.76
5.308,-9.6,224.4,-1.6,-0.62,-2.39,0.85
5.31,4.1,223.1,-3.5,-0.42,-2.24,0.73
5.312,-9.6,223.6,-3.3,-0.52,-2.34,0.72
5.314,-9.2,239.8,-5.6,-0.51,-2.17,0.77
5.316,-4.1,231.5,-4.9,-0.37,-2.27,0.72
5.318,-19.7,221.2,-3.5,-0.52,-2.33,0.81
5.32,-2.6,225.2,-4.6,-0.5,-2.31,0.68
5.322,-1.3,232.5,3,-0.48,-2.33,0.86
5.324,-9,228.2,-1,-0.72,-2.38,0.82
5.326,-3.9,224.7,-4.5,-0.53,-2.32,0.7
5.328,-10,221.2,-7.2,-0.45,-2.36,0.87
5.33,-2.3,229.4,3.4,-0.56,-2.25,0.61
5.332,-7.4,228.6,-0.9,-0.49,-2.41,0.91
5.334,-5.6,228,1.3,-0.58,-2.3,0.71
5.336,-10.2,233.3,-3.8,-0.3,-2.38,0.74
5.338,3.3,221.1,-3.9,-0.53,-2.38,0.8
5.34,-3.4,228.7,-3.1,-0.34,-2.33,0.85
5.342,-4.3,232.3,-2.8,-0.62,-2.41,0.81
5.344,-15.4,211.1,-4.2,-0.53,-2.32,0.81
5.346,-15.3,219.2,-3,-0.54,-2.31,0.62
5.348,3.4,235,0.7,-0.49,-2.24,0.76
5.35,-3.9,224.9,-5.9,-0.52,-2.3,0.77
5.352,5.4,229.4,1.7,-0.51,-2.18,0.7
5.354,-2.7,230.7,-7.7,-0.61,-2.28,0.81
5.356,-16.5,219.3,-5.7,-0.53,-2.28,0.81
5.358,-3.2,228.6,-2.3,-0.53,-2.25,0.8
5.36,10.7,237,-1.9,-0.49,-2.31,0.88
5.362,-2.9,221.2,-2.5,-0.51,-2.2,0.73
5.364,-10.5,221.7,-7.2,-0.62,-2.26,0.76
5.366,0.7,229.8,-2.8,-0.56,-2.2,0.7
5.368,2.3,230.7,0.1,-0.53,-2.14,0.76
5.37,5.8,229.6,4.1,-0.55,-2.27,0.75
5.372,-7.3,232.8,-6.6,-0.63,-2.3,0.73
5.374,-11.5,217.7,-3,-0.44,-2.35,0.81
5.376,-21.1,221.2,-9.8,-0.54,-2.19,0.73
5.378,-5.7,220.4,1.8,-0.42,-2.21,0.82
5.38,-17.9,222.5,-3.4,-0.49,-2.19,0.79
5.382,-21.4,216.3,-4.4,-0.5,-2.11,0.73
5.384,-9.9,221,-2.8,-0.52,-2.21,0.92
5.386,-9.7,223.3,-7.2,-0.59,-2.22,0.72
5.388,-13.2,216.2,-5.8,-0.43,-2.05,0.91
5.39,-7.9,220.5,5,-0.6,-2.16,0.76
5.392,-14.7,222.9,-1.1,-0.47,-2.08,0.64
5.394,-12.1,210.5,-1.9,-0.52,-2.32,0.76
5.396,-6.5,225.8,-8.9,-0.5,-2.13,0.87
5.398,-7.6,229.5,-3.1,-0.66,-2.22,0.76
5.4,-6,231.4,-3.6,-0.48,-2.18,0.79
5.402,-6.7,231,-4.2,-0.46,-2.23,0.78
5.404,-5.2,234.6,-6.1,-0.44,-2.2,0.81
5.406,-3.4,221.2,-0.2,-0.57,-2.28,0.76
5.408,-9.6,217.2,1.4,-0.58,-2.18,0.81
5.41,-4,226.3,-0.7,-0.52,-2.22,0.73
5.412,-2.7,227,0.3,-0.38,-2.2,0.65
5.414,-6.9,222.1,1.9,-0.4,-2.17,0.7
5.416,2.3,237.5,-2.4,-0.59,-2.25,0.71
5.418,-7,222.5,-1.6,-0.53,-2.24,0.75
5.42,-8.3,220.7,-2.8,-0.57,-2.19,0.86
5.422,-7.9,229.6,-0.3,-0.46,-2.15,0.67
5.424,-6.6,220.5,3.9,-0.59,-2.27,0.83
5.426,-8.3,218.8,-7.8,-0.63,-2.24,0.88
5.428,-7,221.1,-4.6,-0.51,-2.14,0.72
5.43,-10,231.3,-0.9,-0.55,-2.27,0.79
5.432,-9,224.2,-0.6,-0.49,-2.18,0.65
5.434,5,231.8,1.2,-0.55,-2.18,0.69
5.436,-3.3,224.7,3.8,-0.62,-2.17,0.81
5.438,-15,225.9,2.3,-0.61,-2.17,0.6
5.44,-16.2,225.1,-5.9,-0.43,-2.1,0.83
5.442,-4.9,217,-6.5,-0.46,-2.11,0.75
5.444,-8.3,221.6,-1.3,-0.39,-2.18,0.86
5.446,-9.3,223.1,-0.4,-0.41,-2.04,0.8
5.448,-16.7,216.3,-5.7,-0.51,-2.18,0.92
5.45,3.1,223.5,4.4,-0.5,-2.18,0.75
5.452,-5.3,235.7,2.4,-0.43,-2.07,0.98
5.454,3.4,228.1,-1,-0.45,-2.2,0.7
5.456,-20,223.3,-2.1,-0.39,-2.17,0.8
5.458,-10.1,222.2,-6.7,-0.4,-2.12,0.7
5.46,-9.8,226.2,-7.5,-0.4,-2.04,0.75
5.462,-4.9,230.9,2,-0.47,-2.13,0.74
5.464,-16,231.3,-3,-0.57,-2.07,0.81
5.466,-4.1,218.1,2.8,-0.32,-2.04,0.7
5.468,-5.8,221.8,-1.6,-0.52,-2.2,0.75
5.47,-11.6,230.7,-0.7,-0.38,-2.05,0.87
5.472,-1,225.5,2.7,-0.49,-2.2,0.62
5.474,-12,220.7,-3.7,-0.45,-2.11,0.64
5.476,-3,235.6,-4.4,-0.55,-2.19,0.72
5.478,-1.4,216.7,-2.2,-0.37,-2.17,0.73
5.48,3.7,226.3,-1.3,-0.62,-2.14,0.67
5.482,-10.8,225.3,-4.1,-0.36,-2.14,0.79
5.484,-3.7,224.2,-6,-0.58,-2.07,0.73
5.486,-14.9,217.2,1.8,-0.38,-2.1,0.6
5.488,-14.8,220.1,1.8,-0.42,-2.13,0.72
5.49,-14,221.1,-4.7,-0.56,-2.13,0.64
5.492,-9.3,228.1,-3.5,-0.52,-2.18,0.69
5.494,-2,216.6,1.1,-0.47,-2.09,0.74
5.496,-15.2,214,-6.9,-0.5,-2.05,0.62
5.498,-13.8,228.9,-0.4,-0.61,-2.13,0.88
5.5,-9.3,226.1,6.2,-0.44,-2.07,0.63
5.502,-7.2,224.3,4.9,-0.53,-2.02,0.59
5.504,-3,234.6,-2.8,-0.42,-2.15,0.73
5.506,-12,216,-1,-0.44,-2.1,0.7
5.508,-8.9,226.4,-4.3,-0.47,-2.15,0.77
5.51,-13.2,227.8,-6.6,-0.37,-2,0.81
5.512,-6.8,219,3.7,-0.58,-2.11,0.7
5.514,-11.8,225.6,0,-0.49,-2.02,0.78
5.516,-15.4,226.9,-6.8,-0.53,-2.1,0.67
5.518,-13.2,213.6,-2.5,-0.42,-2,0.55
5.52,-22.3,208.8,-0.3,-0.6,-2.1,0.69
5.522,-10.4,221.6,-6.7,-0.33,-2,0.64
5.524,-4.8,211.6,-3.8,-0.54,-2.1,0.69
5.526,2.8,222.5,6.5,-0.52,-1.99,0.69
5.528,-14.6,214.9,0.4,-0.34,-2.04,0.82
5.53,-15.1,212.2,-2.2,-0.4,-2.07,0.61
5.532,-13,222.8,-0.5,-0.39,-2.03,0.84
5.534,-0.6,223.3,-5.4,-0.38,-2.09,0.66
5.536,-5.7,218,-9.5,-0.54,-2.04,0.74
5.538,1.8,228.9,-5.3,-0.35,-2.05,0.76
5.54,-15.2,215.1,0.4,-0.57,-2.02,0.76
5.542,-4.6,216.7,-0.2,-0.51,-1.98,0.79
5.544,-4.1,224.7,1.4,-0.48,-2.02,0.68
5.546,-10.3,215.6,5.7,-0.48,-1.94,0.64
5.548,-7.3,215.3,-4.9,-0.45,-2.17,0.65
5.55,-13.2,219.1,-10.5,-0.43,-1.96,0.77
5.552,-12.3,209.3,0.6,-0.52,-2.2,0.65
5.554,-2.3,215.5,0.1,-0.49,-2.06,0.6
5.556,0.4,227.2,3.4,-0.51,-2.09,0.69
5.558,-6.2,218.1,5.9,-0.51,-2.05,0.76
5.56,-13.4,218.9,1.9,-0.51,-2,0.75
5.562,-9.7,210,-0.5,-0.46,-2.03,0.72
5.564,-3.4,216.1,0.5,-0.33,-1.97,0.66
5.566,-3.8,221.1,-2,-0.65,-2.07,0.69
5.568,-20.1,221.3,-5.8,-0.42,-2.06,0.65
5.57,-11.4,207.3,1.8,-0.5,-1.97,0.7
5.572,-8.3,219.5,2,-0.49,-2.04,0.67
5.574,3.7,219,0.1,-0.5,-2.03,0.7
5.576,-1,211.8,0,-0.42,-2.06,0.74
5.578,-9.5,211.4,1.3,-0.48,-1.92,0.68
5.58,-14.3,218.6,-7,-0.53,-1.96,0.79
5.582,-2.3,216.2,-5.7,-0.32,-1.93,0.58
5.584,-10.2,213.3,-2.9,-0.44,-2.05,0.82
5.586,-2.7,218,-0.7,-0.6,-1.99,0.71
5.588,-2.4,213.9,-1.5,-0.54,-1.98,0.7
5.59,-12.1,212.8,-2.1,-0.52,-2.05,0.66
5.592,-11.3,221.9,-4.1,-0.46,-2,0.74
5.594,-9.6,208.5,-3.7,-0.52,-1.93,0.6
5.596,-16.4,212.5,-5.3,-0.56,-2.08,0.66
5.598,-10.9,216,-4.5,-0.45,-2.02,0.63
5.6,-1.4,216,0.7,-0.52,-2.01,0.69
5.602,-9.5,225.8,-1.7,-0.48,-2.01,0.86
5.604,-1.1,219.5,5,-0.44,-1.99,0.77
5.606,-4.7,218.5,-1.9,-0.36,-2.05,0.79
5.608,-10.2,221.2,-3.7,-0.38,-1.92,0.85
5.61,-3.2,214,0.1,-0.55,-1.98,0.64
5.612,-3.1,222.8,-1.7,-0.53,-1.98,0.81
5.614,-16.1,204.7,-5.1,-0.27,-1.91,0.79
5.616,-9.2,218.5,-0.9,-0.5,-1.99,0.7
5.618,-0.3,225.2,-1.6,-0.57,-1.98,0.76
5.62,-3.6,219.8,-5.9,-0.44,-1.94,0.67
5.622,-1.8,220.7,-6.9,-0.55,-1.95,0.76
5.624,-12.5,221.9,1.4,-0.48,-2,0.64
5.626,-13.9,206.2,-7.3,-0.51,-1.88,0.75
5.628,-7.4,208.6,1.9,-0.56,-2,0.75
5.63,-2.3,224.4,3,-0.49,-1.88,0.73
5.632,-16.5,213.7,-4,-0.51,-1.87,0.8
5.634,-1.7,217.7,0.4,-0.44,-1.97,0.7
5.636,-9,215.8,-0.3,-0.47,-1.89,0.83
5.638,-2.8,216.6,-2.1,-0.65,-1.98,0.75
5.64,-8.8,215.7,-3.9,-0.44,-1.81,0.61
5.642,-11.1,219.1,0.8,-0.51,-1.99,0.82
5.644,-11.4,213.2,-4,-0.51,-1.86,0.52
5.646,-9,210.1,-1.7,-0.45,-1.84,0.87
5.648,-12.4,213.4,-4.4,-0.51,-2.02,0.58
5.65,-16.9,208.5,-2.3,-0.34,-1.9,0.8
5.652,-8.1,212.6,-0.9,-0.41,-1.88,0.8
5.654,4.4,228.5,0.4,-0.41,-1.93,0.78
5.656,-3.3,213.5,0.2,-0.46,-1.99,0.67
5.658,-10.4,219.8,-1.2,-0.32,-1.88,0.7
5.66,-6,219.1,-6.8,-0.54,-1.88,0.73
5.662,-4.8,217.7,-6.1,-0.4,-1.94,0.81
5.664,-5,218.4,0.8,-0.55,-1.9,0.76
5.666,-11.8,207.6,-1.1,-0.41,-1.76,0.81
5.668,-2.9,224.1,-3,-0.52,-1.88,0.8
5.67,1.4,226.9,2,-0.38,-1.86,0.76
5.672,-3,214.4,2.6,-0.53,-1.86,0.89
5.674,-6.3,213.4,-8.8,-0.52,-2,0.71
5.676,-14.7,216.6,-7.5,-0.39,-1.86,0.73
5.678,-20.4,215.1,-3.6,-0.58,-1.9,0.75
5.68,-14.9,208.4,-5.1,-0.38,-1.9,0.61
5.682,-13,215.8,-2.8,-0.48,-1.79,0.67
5.684,-9.7,217.2,-1.2,-0.53,-1.97,0.57
5.686,-0.2,217.7,-0.2,-0.42,-1.9,0.7
5.688,-8.6,228.6,-5,-0.55,-1.92,0.63
5.69,-14.6,210.9,-2,-0.59,-1.89,0.53
5.692,-13.5,219.7,-5.5,-0.34,-1.81,0.74
5.694,-11.3,214.8,-8.4,-0.59,-1.93,0.64
5.696,-12.1,215.6,1.1,-0.29,-1.8,0.73
5.698,-3.4,220.9,4.1,-0.52,-1.93,0.65
5.7,-9.1,221.1,-7.5,-0.47,-1.79,0.61
5.702,-5.5,216,-3.6,-0.43,-1.81,0.75
5.704,2.1,222.8,4.3,-0.61,-1.88,0.72
5.706,1.6,218,-5.8,-0.38,-1.8,0.7
5.708,-20,209.6,-10.6,-0.35,-1.81,0.78
5.71,-10.1,220.5,2.7,-0.48,-1.92,0.56
5.712,2.7,214.4,4.6,-0.37,-1.85,0.7
5.714,-8.8,206,-1.6,-0.49,-1.95,0.59
5.716,-14.9,213,0.6,-0.48,-1.91,0.64
5.718,-16.2,210.9,-7.8,-0.43,-1.94,0.79
5.72,-2.3,219.1,-6.1,-0.67,-1.85,0.63
5.722,-3.4,214.9,-7.4,-0.41,-1.9,0.58
5.724,-9.9,214.4,1.1,-0.4,-1.78,0.56
5.726,-9,226.3,-0.3,-0.53,-1.84,0.6
5.728,-3.5,226.3,-5.8,-0.3,-1.84,0.81
5.73,-1.1,222.1,-3.5,-0.42,-1.7,0.8
5.732,-5.9,225,-12.6,-0.46,-1.96,0.72
5.734,-1.3,209.7,-4.7,-0.49,-1.89,0.73
5.736,-11.4,217.6,-3.5,-0.5,-1.85,0.59
5.738,-12.1,213,-3.3,-0.54,-1.75,0.64
5.74,-12.7,212.5,-3.1,-0.29,-1.81,0.63
5.742,-3,216,-2.8,-0.61,-1.77,0.58
5.744,-2.9,215.3,-5.1,-0.36,-1.77,0.48
5.746,-10.2,212.3,-1.1,-0.43,-1.72,0.54
5.748,-4.6,216.4,-3.1,-0.53,-1.8,0.65
5.75,0,225.5,-1.3,-0.34,-1.77,0.64
5.752,5.2,221.4,-1.9,-0.43,-1.85,0.7
5.754,-1.3,217.6,5.4,-0.48,-1.74,0.58
5.756,-7.3,224.4,-3.4,-0.35,-1.8,0.87
5.758,-20.2,212.9,-2.5,-0.4,-1.79,0.66
5.76,-4.6,221,-5.3,-0.46,-1.74,0.66
5.762,-6.4,217.9,-2.8,-0.45,-1.76,0.8
5.764,-13,212.4,-9,-0.51,-1.73,0.63
5.766,-1.6,223.4,-6.6,-0.43,-1.71,0.76
5.768,-13.5,214.7,-0.9,-0.41,-1.68,0.64
5.77,-12.6,211.1,-2.3,-0.47,-1.72,0.66
5.772,-1,216.8,-6.5,-0.46,-1.76,0.74
5.774,-13.3,215.1,-5.2,-0.48,-1.64,0.6
5.776,-7.7,218.7,-5.8,-0.48,-1.73,0.76
5.778,-7.1,212.7,-6.7,-0.35,-1.77,0.62
5.78,-3.2,222.8,-7,-0.42,-1.62,0.61
5.782,6,225.1,5.3,-0.38,-1.67,0.71
5.784,-17.3,207.9,-6.3,-0.43,-1.76,0.58
5.786,-13.3,214.4,-1.9,-0.6,-1.75,0.65
5.788,-3.5,222.9,-4,-0.53,-1.71,0.66
5.79,-4.9,215.3,-5.4,-0.35,-1.64,0.64
5.792,-0.9,219.8,-5.6,-0.59,-1.73,0.73
5.794,-15.1,215.5,-2,-0.48,-1.69,0.57
5.796,-8.6,221.3,-1.9,-0.55,-1.66,0.84
5.798,-0.5,222.3,-1.3,-0.29,-1.67,0.59
5.8,-1.3,218.4,-0.1,-0.44,-1.7,0.56
5.802,-10,215.8,-0.2,-0.55,-1.7,0.71
5.804,-4.6,221.7,-7,-0.33,-1.67,0.58
5.806,-9.3,218.9,-5.6,-0.54,-1.62,0.71
5.808,-4.6,225.1,-0.1,-0.56,-1.63,0.72
5.81,-22.6,209.7,-2.8,-0.5,-1.66,0.68
5.812,-13.9,225,-6.7,-0.59,-1.65,0.86
5.814,-9.9,220.7,-1.3,-0.41,-1.73,0.68
5.816,-0.3,232.7,4.6,-0.44,-1.66,0.82
5.818,-6.2,220.7,-9.9,-0.45,-1.73,0.83
5.82,-18.5,215.3,-7.7,-0.45,-1.69,0.74
5.822,-3.3,215.3,3.1,-0.39,-1.81,0.74
5.824,-18.4,219.6,-4.7,-0.33,-1.62,0.56
5.826,-7.2,224.5,-6.3,-0.45,-1.67,0.67
5.828,-13.4,219.5,-0.7,-0.52,-1.66,0.79
5.83,-1.1,239.7,-4.8,-0.23,-1.56,0.71
5.832,-10.1,210,-8.6,-0.54,-1.68,0.63
5.834,6.8,239.8,-3.3,-0.31,-1.67,0.75
5.836,7.2,240.4,2.9,-0.46,-1.7,0.5
5.838,-11.1,216.5,0,-0.5,-1.68,0.74
5.84,-12.2,224.2,-1.4,-0.48,-1.69,0.64
5.842,3,226.5,0.4,-0.49,-1.69,0.61
5.844,-0.8,226.6,-3,-0.62,-1.7,0.74
5.846,-1.5,224.9,0.1,-0.54,-1.72,0.63
5.848,-6.7,228.9,4.3,-0.39,-1.62,0.77
5.85,-2.3,233,1.3,-0.36,-1.53,0.74
5.852,-7.9,227.4,-1.1,-0.47,-1.66,0.62
5.854,-1.4,226.3,-5,-0.53,-1.58,0.73
5.856,-3.1,227.4,-3.5,-0.38,-1.67,0.62
5.858,-11.4,224.4,-4.7,-0.47,-1.63,0.67
5.86,-6.2,229.6,-1.7,-0.42,-1.69,0.64
5.862,-0.6,238.6,-3.7,-0.48,-1.65,0.6
5.864,-4.8,227.7,1.1,-0.54,-1.61,0.77
5.866,-7.4,223.3,-6.8,-0.4,-1.65,0.56
5.868,-3.4,224.2,-1.2,-0.4,-1.68,0.78
5.87,-0.8,233.5,-6.2,-0.37,-1.56,0.67
5.872,-8.6,230.3,-3.5,-0.36,-1.6,0.65
5.874,-8.3,230.3,-7.5,-0.55,-1.55,0.79
5.876,3.3,220.4,-0.5,-0.41,-1.58,0.61
5.878,4,238.2,1.5,-0.49,-1.53,0.84
5.88,-2.2,238.5,-3.6,-0.6,-1.76,0.69
5.882,-7.4,231.5,-5.5,-0.3,-1.55,0.61
5.884,-12.3,228.2,-6.3,-0.53,-1.76,0.67
5.886,-2.3,234.7,-0.8,-0.35,-1.55,0.62
5.888,-11.3,233.3,-9.1,-0.41,-1.51,0.77
5.89,-5.5,238.1,1.5,-0.61,-1.69,0.76
5.892,-14.7,225.4,-0.9,-0.43,-1.53,0.62
5.894,-13.7,226.3,-6.1,-0.46,-1.69,0.75
5.896,5.3,241.7,-5.4,-0.4,-1.61,0.68
5.898,-7.3,228.6,-5.6,-0.4,-1.6,0.67
5.9,-19.9,222.8,-8,-0.45,-1.63,0.61
5.902,-5.5,237.1,-0.7,-0.45,-1.6,0.77
5.904,-13.7,225.9,-3.6,-0.55,-1.6,0.61
5.906,-0.7,235.6,3.2,-0.48,-1.62,0.7
5.908,-6.7,238,-4.4,-0.48,-1.65,0.6
5.91,-9.7,227.8,-5,-0.51,-1.63,0.65
5.912,1.6,240.3,-1.2,-0.51,-1.58,0.72
5.914,-18.4,229,-11.3,-0.47,-1.65,0.56
5.916,-11.2,232.6,-1.6,-0.48,-1.58,0.76
5.918,-9.2,234.6,0,-0.47,-1.62,0.63
5.92,-8.1,235.9,-8.3,-0.39,-1.59,0.76
5.922,-14.2,232.4,-6.5,-0.56,-1.69,0.72
5.924,-4.1,244,-4.1,-0.48,-1.49,0.63
5.926,-4.5,235.2,-3.7,-0.47,-1.6,0.69
5.928,-0.4,240.5,-7.9,-0.34,-1.51,0.71
5.93,-10.6,234.6,0.1,-0.56,-1.66,0.64
5.932,-17.9,230,2.2,-0.48,-1.57,0.76
5.934,-14.5,234.6,-9.1,-0.48,-1.49,0.65
5.936,-5.8,234.5,-5.8,-0.55,-1.49,0.56
5.938,-0.5,235.3,2.3,-0.51,-1.59,0.68
5.94,-5,246.8,-3.4,-0.45,-1.57,0.47
5.942,-15.1,227.9,-3.4,-0.57,-1.52,0.67
5.944,-3.8,235.5,1,-0.5,-1.53,0.51
5.946,-5,239.9,2.9,-0.57,-1.57,0.66
5.948,-12.3,235.4,-8.2,-0.46,-1.54,0.69
5.95,-17.3,238.4,-5.6,-0.44,-1.61,0.67
5.952,-2.9,244.3,-4.8,-0.48,-1.65,0.75
5.954,-6.2,234.5,-5.8,-0.3,-1.5,0.69
5.956,-13.1,235.9,-2.7,-0.37,-1.63,0.65
5.958,-2,244.3,2.8,-0.43,-1.56,0.62
5.96,-13.8,230.5,-0.9,-0.32,-1.48,0.74
5.962,-15.8,238.9,-10.2,-0.54,-1.64,0.73
5.964,-0.9,250.7,-4,-0.34,-1.5,0.57
5.966,6.5,246.7,-1.4,-0.44,-1.55,0.64
5.968,-8.4,252.5,-7.9,-0.54,-1.58,0.56
5.97,-13.4,246.6,-0.9,-0.37,-1.62,0.6
5.972,-10,241.3,-3.6,-0.43,-1.53,0.66
5.974,-9.4,236.5,-2.6,-0.36,-1.7,0.69
5.976,-4.1,253.9,-2.3,-0.36,-1.59,0.55
5.978,-9.2,243.8,-1.6,-0.4,-1.55,0.68
5.98,-15.5,243.7,-7.1,-0.45,-1.58,0.63
5.982,-0.7,253.8,-6.5,-0.43,-1.56,0.69
5.984,1.4,244.7,1,-0.49,-1.54,0.7
5.986,1.1,244.9,2.2,-0.38,-1.47,0.56
5.988,-6.2,256.7,-7.3,-0.53,-1.58,0.77
5.99,-1.1,249.6,0.4,-0.44,-1.49,0.67
5.992,-6.2,243.4,-1.6,-0.41,-1.61,0.59
5.994,-3.7,250.8,-6.7,-0.37,-1.63,0.61
5.996,-18.4,237.7,-9.7,-0.38,-1.59,0.72
5.998,-21.8,240.7,-2.1,-0.57,-1.6,0.53
6,-6.5,249.7,2.2,-0.43,-1.51,0.62
6.002,-1.1,256.4,-5.2,-0.43,-1.56,0.55
6.004,-0.6,253.9,2.3,-0.57,-1.5,0.57
6.006,-4.9,256.2,-6.8,-0.3,-1.56,0.71
6.008,-10.8,245.8,-6.3,-0.46,-1.52,0.76
6.01,-18.3,240,0.2,-0.46,-1.5,0.65
6.012,-12.1,254.9,-2.6,-0.23,-1.43,0.71
6.014,-17.1,245.6,-7.8,-0.46,-1.56,0.6
6.016,-9.3,254.8,0.7,-0.47,-1.62,0.58
6.018,-9.6,249.8,3.4,-0.38,-1.57,0.62
6.02,-8.6,246.6,-6.3,-0.4,-1.58,0.61
6.022,-5.1,258,-7.4,-0.43,-1.55,0.81
6.024,-2.3,259.3,1.1,-0.44,-1.53,0.72
6.026,-17.9,245.7,-4.2,-0.4,-1.59,0.64
6.028,-17.4,254.3,-0.5,-0.49,-1.54,0.74
6.03,-0.9,267.7,1.8,-0.34,-1.53,0.62
6.032,-8.1,241.1,-6.8,-0.53,-1.46,0.68
6.034,-14.1,255.5,-10.3,-0.44,-1.48,0.68
6.036,-11.6,258.4,-9.1,-0.3,-1.46,0.68
6.038,-7.3,246.8,2,-0.45,-1.59,0.66
6.04,-9,262,-3.3,-0.47,-1.53,0.5
6.042,5,266.9,1.6,-0.34,-1.55,0.54
6.044,1.9,253.5,-0.1,-0.54,-1.56,0.47
6.046,-9.7,266.4,-7.2,-0.33,-1.5,0.71
6.048,-6.5,258.7,-5.8,-0.52,-1.53,0.64
6.05,-9.7,251.3,0.1,-0.38,-1.54,0.75
6.052,-1.2,266.4,2.8,-0.34,-1.42,0.61
6.054,-4.6,258.5,-2.4,-0.44,-1.48,0.68
6.056,-14.6,252.6,-5.2,-0.38,-1.49,0.55
6.058,-3.4,268,-2.6,-0.48,-1.45,0.72
6.06,-0.6,265.8,-1.4,-0.36,-1.48,0.54
6.062,-2.8,264.7,-6.2,-0.34,-1.45,0.72
6.064,1.1,267.4,2.2,-0.49,-1.58,0.55
6.066,-12.3,261.3,-4.1,-0.43,-1.52,0.7
6.068,-6,272.7,-0.8,-0.35,-1.51,0.52
6.07,-12.8,262.5,-4.9,-0.4,-1.42,0.61
6.072,-4.3,263.6,0.9,-0.43,-1.53,0.7
6.074,-6.1,266.9,-1.9,-0.34,-1.55,0.75
6.076,-15.3,262.7,-4.2,-0.38,-1.44,0.61
6.078,-11.9,261.6,-4.8,-0.45,-1.5,0.63
6.08,-5,268.4,-4,-0.5,-1.47,0.76
6.082,-8.1,267.9,-2.3,-0.36,-1.43,0.59
6.084,-10.2,259.5,-5.1,-0.47,-1.51,0.69
6.086,-13.5,268.8,-3.8,-0.51,-1.58,0.72
6.088,-3.5,274.9,-1.5,-0.35,-1.53,0.58
6.09,-7.9,271.6,1.5,-0.51,-1.48,0.69
6.092,-7.2,273.9,-7.3,-0.39,-1.42,0.66
6.094,0.2,275.8,-0.5,-0.37,-1.51,0.65
6.096,-18.4,271.2,-7,-0.47,-1.54,0.66
6.098,-9.5,272,-1.4,-0.25,-1.46,0.54
6.1,-2.5,281.6,3.1,-0.4,-1.44,0.61
6.102,1.6,278.7,3,-0.36,-1.48,0.69
6.104,-7.8,277.6,-7.1,-0.35,-1.41,0.56
6.106,-8.5,272.5,-5.8,-0.5,-1.51,0.74
6.108,-2.1,276.6,-0.8,-0.3,-1.46,0.65
6.11,-6.7,275.8,-5.3,-0.5,-1.58,0.62
6.112,-14.1,279.7,-5.1,-0.44,-1.44,0.68
6.114,-12.7,277,0,-0.29,-1.49,0.54
6.116,-9.5,278.1,-1.8,-0.42,-1.4,0.64
6.118,-11.2,278.6,-5.8,-0.43,-1.51,0.7
6.12,-10.4,280.7,-5.8,-0.5,-1.45,0.77
6.122,-10.2,282.3,-3,-0.47,-1.6,0.68
6.124,-14.2,282.8,-5.8,-0.46,-1.45,0.63
6.126,-3.5,285.6,-3.6,-0.42,-1.36,0.76
6.128,-6.2,284,-2.6,-0.54,-1.48,0.66
6.13,-6.2,287.7,-3.7,-0.41,-1.54,0.69
6.132,-6,285.3,-6.5,-0.41,-1.44,0.65
6.134,-11.4,288.3,-6.8,-0.4,-1.42,0.58
6.136,-9.7,292.3,-1.1,-0.38,-1.46,0.73
6.138,-11.4,277.8,-6.6,-0.42,-1.47,0.6
6.14,-0.4,289.2,0.3,-0.4,-1.43,0.69
6.142,-11.9,294.4,-1.1,-0.4,-1.51,0.78
6.144,-6.4,290.5,2.7,-0.4,-1.41,0.58
6.146,-14.8,292.4,-9.1,-0.41,-1.52,0.7
6.148,-5.1,297.9,-5.1,-0.34,-1.4,0.58
6.15,-5.1,292.6,-3,-0.64,-1.57,0.64
6.152,-8.7,298.2,-6.5,-0.43,-1.5,0.58
6.154,-23.2,296.8,-1.9,-0.48,-1.51,0.69
6.156,-9,293.1,-0.5,-0.49,-1.42,0.66
6.158,-13.4,296.6,-8.6,-0.53,-1.47,0.68
6.16,-6.1,300.5,-1.6,-0.5,-1.38,0.65
6.162,-4.8,302.3,-3.3,-0.48,-1.4,0.71
6.164,-15.1,303.4,-5.5,-0.5,-1.49,0.55
6.166,-13.5,297.5,-5.9,-0.42,-1.49,0.83
6.168,-11.4,302,-3.2,-0.57,-1.48,0.68
6.17,-11.3,311,1.1,-0.36,-1.5,0.73
6.172,-8.7,300,-5.7,-0.55,-1.47,0.57
6.174,-6.6,304.5,-4.6,-0.3,-1.46,0.57
6.176,-6.6,309.2,-0.5,-0.63,-1.57,0.61
6.178,-16.4,303.8,-7.6,-0.4,-1.46,0.58
6.18,-14.6,303.1,-5.1,-0.33,-1.42,0.65
6.182,-14.9,299.1,-4,-0.55,-1.54,0.66
6.184,-18.1,299.9,-4.2,-0.4,-1.5,0.62
6.186,-10.4,305.2,-6.8,-0.5,-1.5,0.74
6.188,-1.3,314,-7,-0.45,-1.45,0.63
6.19,-9.8,319.1,-0.1,-0.44,-1.42,0.62
6.192,-24.2,306.6,-2.8,-0.58,-1.5,0.66
6.194,-13.1,312.1,-4,-0.35,-1.36,0.66
6.196,-5.4,319.4,-0.9,-0.46,-1.44,0.67
6.198,-13.9,317.7,0.3,-0.44,-1.47,0.77
6.2,-17,311.5,-9.1,-0.51,-1.42,0.69
6.202,-9.9,313.1,-6.5,-0.4,-1.36,0.78
6.204,-7,327.6,0,-0.5,-1.43,0.66
6.206,-7.4,322.4,0.4,-0.45,-1.3,0.69
6.208,-0.9,319,-5.6,-0.47,-1.51,0.65
6.21,-8.3,324.7,-5.1,-0.44,-1.45,0.78
6.212,-16,319.2,0.6,-0.42,-1.5,0.63
6.214,-10.3,323.7,-6.7,-0.36,-1.36,0.79
6.216,-10.2,327.8,-7,-0.42,-1.46,0.76
6.218,-8.3,320.1,2.5,-0.38,-1.38,0.64
6.22,-10.7,328,0.6,-0.44,-1.44,0.8
6.222,-3.9,327.2,-8.3,-0.54,-1.44,0.64
6.224,-10.4,325,-4.9,-0.38,-1.46,0.74
6.226,-4.9,330.8,0.5,-0.4,-1.44,0.63
6.228,-14.4,332.4,-3.7,-0.43,-1.46,0.76
